ID,Snellen Denominator,Grip Strength,Chest Strength,Handness,cue_image_1,cue_image_2,Face_Set_Code,Face_Type_Code_1,Face_Type_Code_2,cue_position_x_1,cue_position_x_2,target_position_x,conguruence,experimental_trials.thisN,experimental_trials.thisIndex,responsebutton.keys,responsebutton.corr,responsebutton.rt
1,30,120,105,1,3355,3355,1,3,1,-2,2,2,1,0,351,6,0,0.5000635
1,30,120,105,1,9255,9255,1,2,1,2,-2,-2,0,1,726,6,1,0.5167056
1,30,120,105,1,7599,7599,2,1,2,-2,2,2,1,2,705,5,1,0.6500338
1,30,120,105,1,12555,12555,1,2,1,2,-2,2,0,3,788,5,1,0.5001514
1,30,120,105,1,11599,11599,2,1,2,-2,2,2,1,4,769,5,1,0.4333771
1,30,120,105,1,10099,10099,2,2,3,2,-2,-2,0,5,170,5,1,0.4332811
1,30,120,105,1,999,999,2,1,2,2,-2,2,0,6,584,5,1,0.500028
1,30,120,105,1,16299,16299,2,2,1,-2,2,-2,1,7,847,6,1,0.5333408
1,30,120,105,1,3699,3699,2,3,2,-2,2,2,1,8,73,5,1,0.5000428
1,30,120,105,1,12355,12355,1,3,2,-2,2,2,1,9,217,6,1,0.5333501
1,30,120,105,1,7399,7399,2,2,1,2,-2,-2,0,10,702,6,1,0.4667356
1,30,120,105,1,7299,7299,2,1,3,-2,2,-2,1,11,417,5,1,0.3333507
1,30,120,105,1,2955,2955,1,2,3,2,-2,-2,0,12,54,5,1,0.3168007
1,30,120,105,1,12999,12999,2,3,1,-2,2,2,1,13,515,5,1,0.4334413
1,30,120,105,1,12799,12799,2,3,1,2,-2,2,0,14,510,6,1,0.5000251
1,30,120,105,1,1699,1699,2,3,1,2,-2,2,0,15,310,5,1,0.4334983
1,30,120,105,1,15099,15099,2,3,1,-2,2,2,1,16,551,6,1,0.4500398
1,30,120,105,1,12199,12199,2,3,2,2,-2,2,0,17,212,5,1,0.4167658
1,30,120,105,1,4999,4999,2,2,3,-2,2,-2,1,18,95,5,1,0.350154
1,30,120,105,1,13899,13899,2,1,2,-2,2,2,1,19,817,6,1,0.4334195
1,30,120,105,1,12599,12599,2,3,1,-2,2,2,1,20,507,6,1,0.5834394
1,30,120,105,1,10799,10799,2,2,3,2,-2,-2,0,21,186,5,1,0.3333756
1,30,120,105,1,6399,6399,2,2,1,-2,2,-2,1,22,683,6,1,0.4333771
1,30,120,105,1,1899,1899,2,3,2,2,-2,2,0,23,32,5,1,0.5167227
1,30,120,105,1,4199,4199,2,3,1,-2,2,2,1,24,367,5,1,0.5167269
1,30,120,105,1,10699,10699,2,1,3,2,-2,-2,0,25,468,6,1,0.4833557
1,30,120,105,1,15099,15099,2,2,1,-2,2,-2,1,26,835,6,1,0.6166441
1,30,120,105,1,14699,14699,2,1,3,-2,2,-2,1,27,549,5,1,0.4167555
1,30,120,105,1,11099,11099,2,2,3,-2,2,-2,1,28,195,6,1,0.4167671
1,30,120,105,1,1799,1799,2,3,2,2,-2,2,0,29,28,6,1,0.4501335
1,30,120,105,1,1699,1699,2,2,1,2,-2,-2,0,30,594,5,1,0.3500263
1,30,120,105,1,13699,13699,2,1,3,-2,2,-2,1,31,529,5,1,0.3833632
1,30,120,105,1,1799,1799,2,1,2,2,-2,2,0,32,596,6,1,0.3666444
1,30,120,105,1,399,399,2,1,3,-2,2,-2,1,33,289,5,0,0.3000426
1,30,120,105,1,15399,15399,2,2,1,2,-2,-2,0,34,838,6,1,0.4166465
1,30,120,105,1,4599,4599,2,1,2,2,-2,2,0,35,656,6,1,0.4166331
1,30,120,105,1,9199,9199,2,1,2,2,-2,2,0,36,724,5,1,0.4501048
1,30,120,105,1,8499,8499,2,2,1,-2,2,-2,1,37,719,6,1,0.4001338
1,30,120,105,1,12499,12499,2,2,1,2,-2,-2,0,38,786,5,1,0.4334262
1,30,120,105,1,13299,13299,2,1,3,-2,2,-2,1,39,525,5,1,0.4333685
1,30,120,105,1,4099,4099,2,2,1,2,-2,-2,0,40,646,6,1,0.4500541
1,30,120,105,1,1855,1855,1,3,1,2,-2,2,0,41,314,5,1,0.4500451
1,30,120,105,1,6199,6199,2,3,2,2,-2,2,0,42,108,6,1,0.4501317
1,30,120,105,1,1855,1855,1,2,3,2,-2,-2,0,43,30,5,1,0.3500516
1,30,120,105,1,1199,1199,2,3,2,2,-2,2,0,44,20,6,0,0.3333324
1,30,120,105,1,199,199,2,1,3,2,-2,-2,0,45,284,6,1,0.4667953
1,30,120,105,1,6199,6199,2,1,3,-2,2,-2,1,46,393,6,1,0.5166869
1,30,120,105,1,13199,13199,2,1,3,2,-2,-2,0,47,520,6,1,0.4668187
1,30,120,105,1,6355,6355,1,1,2,2,-2,2,0,48,680,5,1,0.5500441
1,30,120,105,1,15399,15399,2,2,3,2,-2,-2,0,49,270,6,1,0.4500208
1,30,120,105,1,9199,9199,2,1,3,-2,2,-2,1,50,441,5,1,0.4834713
1,30,120,105,1,6999,6999,2,2,1,2,-2,-2,0,51,694,6,1,0.4000003
1,30,120,105,1,2399,2399,2,2,3,2,-2,-2,0,52,42,6,1,0.4166929
1,30,120,105,1,11799,11799,2,3,1,-2,2,2,1,53,491,5,1,0.4334581
1,30,120,105,1,7299,7299,2,3,2,-2,2,2,1,54,133,5,1,0.4168015
1,30,120,105,1,2799,2799,2,3,1,2,-2,2,0,55,334,5,1,0.4667851
1,30,120,105,1,499,499,2,3,2,-2,2,2,1,56,9,5,1,0.4500341
1,30,120,105,1,17255,17255,1,1,3,-2,2,-2,1,57,565,6,1,0.4500499
1,30,120,105,1,2399,2399,2,3,1,2,-2,2,0,58,326,6,1,0.5501357
1,30,120,105,1,1899,1899,2,3,2,-2,2,2,1,59,33,5,1,0.4334386
1,30,120,105,1,5899,5899,2,1,3,2,-2,-2,0,60,388,6,1,0.4834167
1,30,120,105,1,899,899,2,2,1,-2,2,-2,1,61,583,6,1,0.4506494
1,30,120,105,1,10555,10555,1,1,3,2,-2,-2,0,62,464,6,1,0.4833766
1,30,120,105,1,2999,2999,2,3,2,-2,2,2,1,63,57,5,1,0.4666479
1,30,120,105,1,13699,13699,2,3,2,-2,2,2,1,64,245,5,1,0.4667009
1,30,120,105,1,15799,15799,2,1,2,2,-2,2,0,65,840,6,0,0.5501364
1,30,120,105,1,13055,13055,1,1,3,2,-2,-2,0,66,516,5,1,0.5000392
1,30,120,105,1,8499,8499,2,3,1,2,-2,2,0,67,434,6,1,0.4834091
1,30,120,105,1,7799,7799,2,1,3,-2,2,-2,1,68,425,5,1,0.4166962
1,30,120,105,1,3599,3599,2,2,3,2,-2,-2,0,69,70,6,1,0.5167832
1,30,120,105,1,6399,6399,2,2,1,2,-2,-2,0,70,682,6,1,0.4666968
1,30,120,105,1,14355,14355,1,3,1,-2,2,2,1,71,543,5,1,0.4500113
1,30,120,105,1,12555,12555,1,3,1,-2,2,-2,1,72,505,5,1,0.5000493
1,30,120,105,1,10355,10355,1,1,3,2,-2,-2,0,73,460,6,1,0.4500286
1,30,120,105,1,1099,1099,2,2,3,-2,2,-2,1,74,19,6,1,0.4833619
1,30,120,105,1,11699,11699,2,2,1,2,-2,-2,0,75,770,6,1,0.5001873
1,30,120,105,1,2999,2999,2,1,3,-2,2,-2,1,76,341,5,1,0.4500201
1,30,120,105,1,9499,9499,2,2,3,-2,2,-2,1,77,163,5,1,0.4000237
1,30,120,105,1,14699,14699,2,3,2,2,-2,2,0,78,264,5,1,0.4852888
1,30,120,105,1,14355,14355,1,2,3,-2,2,-2,1,79,259,5,1,0.4334557
1,30,120,105,1,10199,10199,2,3,1,2,-2,2,0,80,458,6,1,0.3850172
1,30,120,105,1,14399,14399,2,3,2,-2,2,2,1,81,261,5,1,0.4500511
1,30,120,105,1,15399,15399,2,2,1,-2,2,-2,1,82,839,6,1,0.4333593
1,30,120,105,1,4299,4299,2,1,2,-2,2,2,1,83,653,6,1,0.6501256
1,30,120,105,1,4099,4099,2,3,1,2,-2,2,0,84,362,6,1,0.5166816
1,30,120,105,1,4155,4155,1,1,3,2,-2,-2,0,85,364,6,1,0.5191787
1,30,120,105,1,3899,3899,2,1,2,2,-2,2,0,86,644,5,1,0.4334149
1,30,120,105,1,5599,5599,2,2,3,-2,2,-2,1,87,99,5,1,0.4340201
1,30,120,105,1,13199,13199,2,1,2,2,-2,2,0,88,804,6,1,0.4166547
1,30,120,105,1,9399,9399,2,3,2,-2,2,2,1,89,161,6,1,0.4167112
1,30,120,105,1,13199,13199,2,1,3,-2,2,-2,1,90,521,5,0,0.4167582
1,30,120,105,1,6399,6399,2,3,1,-2,2,2,1,91,399,6,1,0.5015637
1,30,120,105,1,12299,12299,2,3,1,-2,2,2,1,92,499,6,1,0.4166775
1,30,120,105,1,1255,1255,1,2,1,-2,2,-2,1,93,591,6,1,0.4167632
1,30,120,105,1,6199,6199,2,1,2,-2,2,2,1,94,677,6,1,0.3666772
1,30,120,105,1,12155,12155,1,3,1,2,-2,2,0,95,494,5,1,0.4166669
1,30,120,105,1,7099,7099,2,1,2,-2,2,2,1,96,697,5,1,0.402016
1,30,120,105,1,4799,4799,2,2,1,2,-2,-2,0,97,658,5,1,0.3834706
1,30,120,105,1,10799,10799,2,2,1,-2,2,-2,1,98,755,5,1,0.3500334
1,30,120,105,1,1855,1855,1,2,3,-2,2,-2,1,99,31,5,1,0.4500269
1,30,120,105,1,8399,8399,2,3,2,-2,2,2,1,100,149,5,1,0.4669396
1,30,120,105,1,2699,2699,2,1,2,2,-2,2,0,101,616,6,1,0.416741
1,30,120,105,1,4899,4899,2,3,2,-2,2,2,1,102,93,6,1,0.4333961
1,30,120,105,1,5599,5599,2,2,3,2,-2,-2,0,103,98,5,1,0.383291
1,30,120,105,1,1255,1255,1,3,1,2,-2,2,0,104,306,6,1,0.4000238
1,30,120,105,1,7599,7599,2,1,3,-2,2,-2,1,105,421,5,1,0.4178432
1,30,120,105,1,11599,11599,2,1,3,2,-2,-2,0,106,484,5,1,0.4167715
1,30,120,105,1,6999,6999,2,3,1,2,-2,2,0,107,410,6,1,0.3332964
1,30,120,105,1,13055,13055,1,3,2,2,-2,2,0,108,232,5,1,0.4500773
1,30,120,105,1,7199,7199,2,3,1,2,-2,2,0,109,414,6,1,0.5499612
1,30,120,105,1,4155,4155,1,3,2,2,-2,2,0,110,80,6,1,0.4517566
1,30,120,105,1,13155,13155,1,3,1,-2,2,2,1,111,519,6,1,0.4000229
1,30,120,105,1,3399,3399,2,3,2,-2,2,2,1,112,69,5,1,0.4833423
1,30,120,105,1,3099,3099,2,2,1,-2,2,-2,1,113,627,6,1,0.4667103
1,30,120,105,1,12799,12799,2,2,3,-2,2,-2,1,114,227,6,1,0.4500172
1,30,120,105,1,2299,2299,2,1,2,2,-2,2,0,115,608,5,1,0.3834337
1,30,120,105,1,4399,4399,2,2,1,2,-2,-2,0,116,654,5,1,0.3834566
1,30,120,105,1,13255,13255,1,2,1,-2,2,-2,1,117,807,5,1,0.4667278
1,30,120,105,1,10899,10899,2,2,3,-2,2,-2,1,118,191,6,1,0.4000037
1,30,120,105,1,17255,17255,1,1,2,-2,2,2,1,119,849,6,1,0.5000232
1,30,120,105,1,9255,9255,1,2,3,-2,2,-2,1,120,159,5,0,0.3667086
1,30,120,105,1,12699,12699,2,1,2,-2,2,2,1,121,793,5,1,0.5167211
1,30,120,105,1,7599,7599,2,3,2,2,-2,2,0,122,136,5,1,0.4667159
1,30,120,105,1,499,499,2,1,2,2,-2,2,0,123,576,5,1,0.4334178
1,30,120,105,1,5599,5599,2,2,1,2,-2,-2,0,124,666,5,1,0.5333639
1,30,120,105,1,9599,9599,2,3,2,2,-2,2,0,125,164,6,1,0.4834394
1,30,120,105,1,12499,12499,2,2,3,2,-2,-2,0,126,218,5,1,0.3833422
1,30,120,105,1,299,299,2,2,3,-2,2,-2,1,127,3,5,1,0.4334282
1,30,120,105,1,3099,3099,2,2,3,-2,2,-2,1,128,59,6,1,0.4666583
1,30,120,105,1,14055,14055,1,3,1,-2,2,2,1,129,535,5,1,0.5834229
1,30,120,105,1,13855,13855,1,2,3,-2,2,-2,1,130,247,6,1,0.4333789
1,30,120,105,1,199,199,2,3,2,-2,2,2,1,131,1,6,1,0.3833607
1,30,120,105,1,2599,2599,2,1,3,2,-2,-2,0,132,328,5,1,0.3666881
1,30,120,105,1,10155,10155,1,1,3,2,-2,-2,0,133,456,5,1,0.4000425
1,30,120,105,1,6855,6855,1,3,2,-2,2,2,1,134,121,6,1,0.3667794
1,30,120,105,1,7999,7999,2,3,1,2,-2,2,0,135,426,6,1,0.3676122
1,30,120,105,1,3099,3099,2,3,1,-2,2,2,1,136,343,6,1,0.4001296
1,30,120,105,1,15799,15799,2,3,2,-2,2,2,1,137,273,5,1,0.4667983
1,30,120,105,1,11099,11099,2,3,1,2,-2,2,0,138,478,6,1,0.4676088
1,30,120,105,1,12499,12499,2,3,1,-2,2,2,1,139,503,5,1,0.4180423
1,30,120,105,1,3199,3199,2,2,1,-2,2,-2,1,140,631,5,1,0.4167807
1,30,120,105,1,6955,6955,1,1,3,-2,2,-2,1,141,409,5,1,0.3834047
1,30,120,105,1,8199,8199,2,2,3,-2,2,-2,1,142,147,6,1,0.4667837
1,30,120,105,1,15399,15399,2,2,3,-2,2,-2,1,143,271,6,1,0.4339908
1,30,120,105,1,12555,12555,1,2,1,-2,2,2,1,144,789,5,1,0.4000278
1,30,120,105,1,13255,13255,1,3,1,-2,2,2,1,145,523,5,1,0.4333956
1,30,120,105,1,6855,6855,1,3,2,2,-2,2,0,146,120,6,1,0.4334075
1,30,120,105,1,6955,6955,1,1,3,2,-2,-2,0,147,408,5,1,0.383448
1,30,120,105,1,4099,4099,2,2,1,-2,2,-2,1,148,647,6,1,0.4667037
1,30,120,105,1,10099,10099,2,3,1,2,-2,2,0,149,454,5,1,0.4666388
1,30,120,105,1,13699,13699,2,1,2,-2,2,2,1,150,813,5,1,0.4001296
1,30,120,105,1,10699,10699,2,3,2,2,-2,2,0,151,184,6,1,0.4854528
1,30,120,105,1,1899,1899,2,1,2,-2,2,2,1,152,601,5,1,0.4343888
1,30,120,105,1,499,499,2,3,2,2,-2,2,0,153,8,5,1,0.4167036
1,30,120,105,1,2899,2899,2,3,2,-2,2,2,1,154,53,6,1,0.3667228
1,30,120,105,1,3399,3399,2,3,2,2,-2,2,0,155,68,5,1,0.4500385
1,30,120,105,1,8399,8399,2,1,2,-2,2,2,1,156,717,5,1,0.3836124
1,30,120,105,1,5899,5899,2,3,2,2,-2,2,0,157,104,6,1,0.4333505
1,30,120,105,1,15299,15299,2,1,3,2,-2,-2,0,158,552,5,1,0.416709
1,30,120,105,1,7599,7599,2,3,2,-2,2,2,1,159,137,5,1,0.4837932
1,30,120,105,1,799,799,2,3,2,2,-2,2,0,160,12,5,1,0.4500299
1,30,120,105,1,10599,10599,2,3,1,-2,2,2,1,161,467,6,0,0.3833873
1,30,120,105,1,5599,5599,2,2,1,-2,2,-2,1,162,667,5,1,0.4167365
1,30,120,105,1,9399,9399,2,1,3,2,-2,-2,0,163,444,5,0,0.4167771
1,30,120,105,1,11755,11755,1,3,2,-2,2,2,1,164,205,6,1,0.5000178
1,30,120,105,1,16199,16199,2,1,3,-2,2,-2,1,165,561,5,1,0.3667993
1,30,120,105,1,4199,4199,2,2,1,-2,2,-2,1,166,651,5,1,0.4500738
1,30,120,105,1,10899,10899,2,2,3,2,-2,-2,0,167,190,6,1,0.4167657
1,30,120,105,1,4299,4299,2,1,2,2,-2,2,0,168,652,6,1,0.3840768
1,30,120,105,1,1399,1399,2,3,2,-2,2,2,1,169,25,6,1,0.4167638
1,30,120,105,1,15399,15399,2,3,1,2,-2,2,0,170,554,6,1,0.4499855
1,30,120,105,1,3299,3299,2,3,2,2,-2,2,0,171,64,6,1,0.4000382
1,30,120,105,1,13855,13855,1,2,3,2,-2,-2,0,172,246,5,0,0.3499802
1,30,120,105,1,16199,16199,2,1,2,-2,2,2,1,173,845,5,1,0.550052
1,30,120,105,1,12155,12155,1,2,3,2,-2,-2,0,174,210,5,1,0.434778
1,30,120,105,1,455,455,1,2,3,-2,2,-2,1,175,7,5,1,0.4168082
1,30,120,105,1,12299,12299,2,2,3,-2,2,-2,1,176,215,6,1,0.4333829
1,30,120,105,1,6855,6855,1,1,2,-2,2,2,1,177,689,6,1,0.4667878
1,30,120,105,1,5699,5699,2,3,2,-2,2,2,1,178,101,6,1,0.4503545
1,30,120,105,1,17355,17355,1,2,1,2,-2,-2,0,179,850,5,1,0.4167094
1,30,120,105,1,10355,10355,1,3,2,-2,2,2,1,180,177,6,1,0.3667004
1,30,120,105,1,8099,8099,2,1,3,2,-2,-2,0,181,428,5,1,0.3667815
1,30,120,105,1,6099,6099,2,2,1,2,-2,-2,0,182,674,5,1,0.383397
1,30,120,105,1,15799,15799,2,3,2,2,-2,2,0,183,272,6,0,0.3333855
1,30,120,105,1,2599,2599,2,1,2,2,-2,2,0,184,612,5,1,0.5000193
1,30,120,105,1,3299,3299,2,1,3,2,-2,-2,0,185,348,6,1,0.433331
1,30,120,105,1,4299,4299,2,1,3,2,-2,-2,0,186,368,6,1,0.4667957
1,30,120,105,1,9255,9255,1,3,1,-2,2,2,1,187,443,6,1,0.4500296
1,30,120,105,1,14699,14699,2,1,2,2,-2,2,0,188,832,5,1,0.4833532
1,30,120,105,1,10999,10999,2,3,2,2,-2,2,0,189,192,5,1,0.4334634
1,30,120,105,1,8799,8799,2,2,1,-2,2,-2,1,190,723,6,1,0.4016486
1,30,120,105,1,899,899,2,2,3,-2,2,-2,1,191,15,6,1,0.4501065
1,30,120,105,1,6999,6999,2,2,3,-2,2,-2,1,192,127,6,1,0.4667289
1,30,120,105,1,8199,8199,2,2,1,2,-2,-2,0,193,714,6,1,0.4500481
1,30,120,105,1,4999,4999,2,2,3,2,-2,-2,0,194,94,5,1,0.3672654
1,30,120,105,1,9255,9255,1,2,3,2,-2,-2,0,195,158,6,1,0.4333821
1,30,120,105,1,13855,13855,1,3,1,2,-2,2,0,196,530,6,1,0.483407
1,30,120,105,1,2999,2999,2,3,2,2,-2,2,0,197,56,5,1,0.4344252
1,30,120,105,1,5899,5899,2,1,2,2,-2,2,0,198,672,5,0,0.4334075
1,30,120,105,1,4599,4599,2,1,3,2,-2,-2,0,199,372,6,1,0.4500959
1,30,120,105,1,12699,12699,2,3,2,2,-2,2,0,200,224,5,1,0.4333815
1,30,120,105,1,2299,2299,2,3,2,-2,2,2,1,201,41,5,1,0.4501084
1,30,120,105,1,6999,6999,2,2,3,2,-2,-2,0,202,126,6,1,0.4666867
1,30,120,105,1,14499,14499,2,2,1,-2,2,-2,1,203,831,6,1,0.4013633
1,30,120,105,1,9199,9199,2,1,2,-2,2,2,1,204,725,5,1,0.3834094
1,30,120,105,1,2299,2299,2,1,2,-2,2,2,1,205,609,5,1,0.4667775
1,30,120,105,1,14155,14155,1,1,3,-2,2,-2,1,206,537,6,1,0.4167661
1,30,120,105,1,2999,2999,2,1,3,2,-2,-2,0,207,340,5,1,0.4001158
1,30,120,105,1,9899,9899,2,3,2,2,-2,2,0,208,168,6,1,0.3666776
1,30,120,105,1,12999,12999,2,3,1,2,-2,2,0,209,514,5,1,0.4333739
1,30,120,105,1,8199,8199,2,3,1,-2,2,2,1,210,431,6,1,0.4167656
1,30,120,105,1,7199,7199,2,3,1,-2,2,2,1,211,415,6,1,0.4500844
1,30,120,105,1,8499,8499,2,2,3,-2,2,-2,1,212,151,6,1,0.4666708
1,30,120,105,1,12699,12699,2,3,2,-2,2,2,1,213,225,5,1,0.416806
1,30,120,105,1,10199,10199,2,2,1,-2,2,-2,1,214,743,6,1,0.4339069
1,30,120,105,1,2399,2399,2,2,3,-2,2,-2,1,215,43,6,1,0.4167977
1,30,120,105,1,15899,15899,2,3,1,-2,2,2,1,216,559,6,1,0.4834168
1,30,120,105,1,7799,7799,2,1,2,2,-2,2,0,217,708,6,0,0.3510133
1,30,120,105,1,7999,7999,2,3,1,-2,2,2,1,218,427,6,1,0.4666559
1,30,120,105,1,3199,3199,2,2,3,-2,2,-2,1,219,63,5,1,0.4000509
1,30,120,105,1,15299,15299,2,1,2,2,-2,2,0,220,836,5,1,0.6010254
1,30,120,105,1,14299,14299,2,1,3,-2,2,-2,1,221,541,6,1,0.4000209
1,30,120,105,1,6355,6355,1,3,2,-2,2,2,1,222,113,5,1,0.4334187
1,30,120,105,1,7399,7399,2,2,1,-2,2,-2,1,223,703,6,1,0.4333871
1,30,120,105,1,8099,8099,2,1,3,-2,2,-2,1,224,429,5,1,0.4167866
1,30,120,105,1,10855,10855,1,1,2,-2,2,2,1,225,757,5,1,0.4500679
1,30,120,105,1,15899,15899,2,2,3,2,-2,-2,0,226,274,6,1,0.4667325
1,30,120,105,1,9499,9499,2,2,3,2,-2,-2,0,227,162,5,1,0.3667933
1,30,120,105,1,13899,13899,2,3,2,2,-2,2,0,228,248,6,1,0.4500174
1,30,120,105,1,15399,15399,2,3,1,-2,2,2,1,229,555,6,1,0.5017528
1,30,120,105,1,12155,12155,1,2,1,2,-2,-2,0,230,778,5,1,0.4001463
1,30,120,105,1,3799,3799,2,2,3,2,-2,-2,0,231,74,6,1,0.45003
1,30,120,105,1,13499,13499,2,3,1,2,-2,2,0,232,526,6,1,0.4000065
1,30,120,105,1,17355,17355,1,2,3,2,-2,-2,0,233,282,5,1,0.3999564
1,30,120,105,1,11755,11755,1,1,3,-2,2,-2,1,234,489,6,1,0.4667157
1,30,120,105,1,12499,12499,2,2,3,-2,2,-2,1,235,219,5,1,0.4001021
1,30,120,105,1,7299,7299,2,1,3,2,-2,-2,0,236,416,5,1,0.4166279
1,30,120,105,1,3355,3355,1,2,3,2,-2,-2,0,237,66,5,1,0.4177803
1,30,120,105,1,1399,1399,2,1,3,2,-2,-2,0,238,308,6,1,0.4500212
1,30,120,105,1,7099,7099,2,1,2,2,-2,2,0,239,696,5,1,0.4667826
1,30,120,105,1,12299,12299,2,2,1,-2,2,-2,1,240,783,6,1,0.4000287
1,30,120,105,1,12699,12699,2,1,3,-2,2,-2,1,241,509,5,1,0.3667108
1,30,120,105,1,2699,2699,2,1,3,-2,2,-2,1,242,333,6,1,0.483388
1,30,120,105,1,12555,12555,1,3,1,2,-2,-2,0,243,504,5,1,0.366704
1,30,120,105,1,11599,11599,2,3,2,2,-2,2,0,244,200,5,1,0.6499954
1,30,120,105,1,8399,8399,2,1,3,2,-2,-2,0,245,432,5,1,0.4166571
1,30,120,105,1,13899,13899,2,1,3,-2,2,-2,1,246,533,6,1,0.3834149
1,30,120,105,1,3355,3355,1,2,1,2,-2,-2,0,247,634,5,1,0.3667927
1,30,120,105,1,12799,12799,2,2,1,2,-2,-2,0,248,794,5,0,0.4834217
1,30,120,105,1,11199,11199,2,1,3,-2,2,-2,1,249,481,5,1,0.5167699
1,30,120,105,1,12155,12155,1,3,1,-2,2,2,1,250,495,5,1,0.5000182
1,30,120,105,1,3799,3799,2,2,1,2,-2,-2,0,251,642,6,1,0.4333399
1,30,120,105,1,3599,3599,2,3,1,2,-2,2,0,252,354,6,1,0.3667126
1,30,120,105,1,2799,2799,2,2,3,2,-2,-2,0,253,50,5,1,0.4501338
1,30,120,105,1,9899,9899,2,3,2,-2,2,2,1,254,169,6,1,0.3667338
1,30,120,105,1,6855,6855,1,1,3,2,-2,-2,0,255,404,6,1,0.4333347
1,30,120,105,1,15099,15099,2,2,1,2,-2,-2,0,256,834,5,0,0.3683568
1,30,120,105,1,13199,13199,2,3,2,2,-2,2,0,257,236,6,1,0.4838777
1,30,120,105,1,7199,7199,2,2,1,-2,2,-2,1,258,699,6,1,0.4500497
1,30,120,105,1,4999,4999,2,2,1,-2,2,-2,1,259,663,5,1,0.433413
1,30,120,105,1,3599,3599,2,2,3,-2,2,-2,1,260,71,6,1,0.4167673
1,30,120,105,1,4199,4199,2,3,1,2,-2,2,0,261,366,5,1,0.4167934
1,30,120,105,1,6099,6099,2,2,3,-2,2,-2,1,262,107,5,1,0.3685056
1,30,120,105,1,8499,8499,2,3,1,-2,2,2,1,263,435,6,1,0.3833687
1,30,120,105,1,7699,7699,2,3,1,-2,2,2,1,264,423,6,1,0.5000077
1,30,120,105,1,6855,6855,1,1,2,2,-2,2,0,265,688,6,1,0.4000992
1,30,120,105,1,15799,15799,2,1,3,-2,2,-2,1,266,557,5,1,0.4018787
1,30,120,105,1,12155,12155,1,2,3,-2,2,-2,1,267,211,5,1,0.3666433
1,30,120,105,1,11755,11755,1,1,2,2,-2,2,0,268,772,6,1,0.3500158
1,30,120,105,1,14055,14055,1,3,1,2,-2,2,0,269,534,5,1,0.5167695
1,30,120,105,1,4999,4999,2,2,1,2,-2,-2,0,270,662,5,1,0.4166992
1,30,120,105,1,5799,5799,2,3,1,2,-2,2,0,271,386,5,1,0.5166508
1,30,120,105,1,12799,12799,2,2,3,2,-2,-2,0,272,226,6,1,0.4666348
1,30,120,105,1,7699,7699,2,2,3,-2,2,-2,1,273,139,6,1,0.4008409
1,30,120,105,1,10099,10099,2,3,1,-2,2,2,1,274,455,5,1,0.3833581
1,30,120,105,1,10855,10855,1,3,2,2,-2,2,0,275,188,5,1,0.4333897
1,30,120,105,1,17255,17255,1,1,3,2,-2,-2,0,276,564,6,1,0.5008799
1,30,120,105,1,3399,3399,2,1,2,-2,2,2,1,277,637,5,1,0.4500124
1,30,120,105,1,9255,9255,1,3,1,2,-2,2,0,278,442,6,1,0.466692
1,30,120,105,1,14299,14299,2,1,2,-2,2,2,1,279,825,6,1,0.4514095
1,30,120,105,1,6199,6199,2,3,2,-2,2,2,1,280,109,6,1,0.4000357
1,30,120,105,1,3299,3299,2,3,2,-2,2,2,1,281,65,6,1,0.4334392
1,30,120,105,1,3155,3155,1,1,3,2,-2,-2,0,282,344,6,1,0.4500227
1,30,120,105,1,10855,10855,1,3,2,-2,2,2,1,283,189,5,1,0.4166961
1,30,120,105,1,6099,6099,2,2,3,2,-2,-2,0,284,106,5,1,0.4000242
1,30,120,105,1,299,299,2,3,1,2,-2,2,0,285,286,6,0,0.4000431
1,30,120,105,1,10155,10155,1,1,2,-2,2,2,1,286,741,5,1,0.4667433
1,30,120,105,1,2955,2955,1,3,1,2,-2,2,0,287,338,5,1,0.4167124
1,30,120,105,1,1399,1399,2,1,2,2,-2,2,0,288,592,6,1,0.5000385
1,30,120,105,1,13299,13299,2,1,3,2,-2,-2,0,289,524,5,1,0.3666563
1,30,120,105,1,10599,10599,2,2,3,2,-2,-2,0,290,182,5,1,0.3668051
1,30,120,105,1,11699,11699,2,2,3,-2,2,-2,1,291,203,5,0,0.3834143
1,30,120,105,1,12855,12855,1,1,3,-2,2,-2,1,292,513,6,1,0.4501027
1,30,120,105,1,13855,13855,1,3,1,-2,2,2,1,293,531,6,1,0.4500188
1,30,120,105,1,6855,6855,1,1,3,-2,2,-2,1,294,405,5,0,0.3846248
1,30,120,105,1,3299,3299,2,1,2,-2,2,2,1,295,633,6,1,0.4335825
1,30,120,105,1,14299,14299,2,1,3,2,-2,-2,0,296,540,6,1,0.4833642
1,30,120,105,1,3899,3899,2,1,3,-2,2,-2,1,297,361,5,1,0.6184341
1,30,120,105,1,12099,12099,2,1,2,2,-2,2,0,298,776,6,1,0.4001318
1,30,120,105,1,10199,10199,2,2,1,2,-2,-2,0,299,742,6,1,0.5021908
1,30,120,105,1,6399,6399,2,2,3,-2,2,-2,1,300,115,6,1,0.4333698
1,30,120,105,1,6099,6099,2,2,1,-2,2,-2,1,301,675,5,1,0.500022
1,30,120,105,1,2099,2099,2,2,3,-2,2,-2,1,302,35,6,1,0.5500737
1,30,120,105,1,4099,4099,2,3,1,-2,2,2,1,303,363,6,1,0.5000111
1,30,120,105,1,11755,11755,1,3,2,2,-2,2,0,304,204,6,1,0.466713
1,30,120,105,1,3355,3355,1,3,1,2,-2,2,0,305,350,6,0,0.4334511
1,30,120,105,1,2655,2655,1,3,1,2,-2,2,0,306,330,6,1,0.466807
1,30,120,105,1,6899,6899,2,2,3,2,-2,-2,0,307,122,5,1,0.4668044
1,30,120,105,1,11699,11699,2,3,1,-2,2,2,1,308,487,6,1,0.4166989
1,30,120,105,1,12999,12999,2,2,1,-2,2,-2,1,309,799,5,1,0.3666849
1,30,120,105,1,14199,14199,2,2,1,-2,2,-2,1,310,823,5,1,0.4334137
1,30,120,105,1,13899,13899,2,1,3,2,-2,-2,0,311,532,6,1,0.5001408
1,30,120,105,1,599,599,2,2,1,-2,2,-2,1,312,579,6,1,0.4333576
1,30,120,105,1,5599,5599,2,3,1,-2,2,2,1,313,383,5,1,0.5166686
1,30,120,105,1,10599,10599,2,3,1,2,-2,2,0,314,466,5,1,0.4334126
1,30,120,105,1,10855,10855,1,1,3,-2,2,-2,1,315,473,5,1,0.466709
1,30,120,105,1,4599,4599,2,3,2,2,-2,2,0,316,88,6,1,0.4167555
1,30,120,105,1,13255,13255,1,3,1,2,-2,2,0,317,522,5,1,0.4834113
1,30,120,105,1,13255,13255,1,2,3,2,-2,-2,0,318,238,5,1,0.3693364
1,30,120,105,1,8399,8399,2,1,2,2,-2,2,0,319,716,5,1,0.6166872
1,30,120,105,1,9599,9599,2,1,3,-2,2,-2,1,320,449,6,1,0.4333386
1,30,120,105,1,1199,1199,2,1,2,2,-2,2,0,321,588,5,1,0.4167543
1,30,120,105,1,6599,6599,2,1,3,2,-2,-2,0,322,400,5,1,0.4334547
1,30,120,105,1,14199,14199,2,2,3,2,-2,-2,0,323,254,5,1,0.3500507
1,30,120,105,1,9199,9199,2,3,2,-2,2,2,1,324,157,5,1,0.4501492
1,30,120,105,1,9399,9399,2,3,2,2,-2,2,0,325,160,6,1,0.5833549
1,30,120,105,1,12855,12855,1,3,2,-2,2,2,1,326,229,6,1,0.4834317
1,30,120,105,1,6599,6599,2,1,3,-2,2,-2,1,327,401,5,1,0.3854963
1,30,120,105,1,14699,14699,2,1,3,2,-2,-2,0,328,548,5,1,0.3667743
1,30,120,105,1,15899,15899,2,2,1,-2,2,-2,1,329,843,6,1,0.4334615
1,30,120,105,1,3355,3355,1,2,3,-2,2,-2,1,330,67,5,1,0.4501097
1,30,120,105,1,6699,6699,2,2,1,2,-2,-2,0,331,686,6,1,0.4348234
1,30,120,105,1,14299,14299,2,3,2,2,-2,2,0,332,256,6,1,0.3500182
1,30,120,105,1,10155,10155,1,3,2,2,-2,2,0,333,172,5,1,0.4333704
1,30,120,105,1,10455,10455,1,2,3,2,-2,-2,0,334,178,5,1,0.3666072
1,30,120,105,1,2299,2299,2,3,2,2,-2,2,0,335,40,5,1,0.4667869
1,30,120,105,1,4799,4799,2,3,1,-2,2,2,1,336,375,5,1,0.4499713
1,30,120,105,1,4155,4155,1,1,2,2,-2,2,0,337,648,6,1,0.3833384
1,30,120,105,1,6399,6399,2,2,3,2,-2,-2,0,338,114,6,1,0.433428
1,30,120,105,1,7299,7299,2,1,2,2,-2,2,0,339,700,5,1,0.4000107
1,30,120,105,1,5699,5699,2,1,2,2,-2,2,0,340,668,6,1,0.5167067
1,30,120,105,1,13855,13855,1,2,1,2,-2,-2,0,341,814,6,1,0.5000336
1,30,120,105,1,14055,14055,1,2,1,2,-2,-2,0,342,818,5,1,0.3674944
1,30,120,105,1,9899,9899,2,1,2,2,-2,2,0,343,736,6,1,0.3667091
1,30,120,105,1,11099,11099,2,2,1,-2,2,-2,1,344,763,6,1,0.3999344
1,30,120,105,1,999,999,2,1,3,2,-2,-2,0,345,300,5,1,0.4167895
1,30,120,105,1,7099,7099,2,1,3,-2,2,-2,1,346,413,5,1,0.4334741
1,30,120,105,1,13255,13255,1,2,1,2,-2,-2,0,347,806,5,1,0.4334498
1,30,120,105,1,6599,6599,2,3,2,2,-2,2,0,348,116,5,1,0.4667812
1,30,120,105,1,15899,15899,2,2,3,-2,2,-2,1,349,275,6,1,0.4666502
1,30,120,105,1,999,999,2,3,2,2,-2,2,0,350,16,5,1,0.3834678
1,30,120,105,1,5799,5799,2,2,3,2,-2,-2,0,351,102,5,1,0.4018325
1,30,120,105,1,3199,3199,2,2,3,2,-2,-2,0,352,62,5,1,0.4499816
1,30,120,105,1,12855,12855,1,3,2,2,-2,2,0,353,228,6,1,0.5000307
1,30,120,105,1,9699,9699,2,3,1,2,-2,2,0,354,450,5,1,0.766771
1,30,120,105,1,8099,8099,2,1,2,2,-2,2,0,355,712,5,1,0.5001291
1,30,120,105,1,11699,11699,2,2,3,2,-2,-2,0,356,202,6,1,0.5000413
1,30,120,105,1,14499,14499,2,3,1,2,-2,2,0,357,546,6,1,0.5001391
1,30,120,105,1,12699,12699,2,1,3,2,-2,-2,0,358,508,5,1,0.4173328
1,30,120,105,1,2255,2255,1,2,3,2,-2,-2,0,359,38,5,1,0.4000513
1,30,120,105,1,7799,7799,2,1,2,-2,2,2,1,360,709,5,1,0.4667759
1,30,120,105,1,10599,10599,2,2,1,-2,2,-2,1,361,751,5,1,0.3666328
1,30,120,105,1,2299,2299,2,1,3,2,-2,-2,0,362,324,5,1,0.4181133
1,30,120,105,1,14155,14155,1,1,2,2,-2,2,0,363,820,6,1,0.5166518
1,30,120,105,1,5299,5299,2,1,2,-2,2,2,1,364,665,6,1,0.4500324
1,30,120,105,1,14155,14155,1,1,2,-2,2,2,1,365,821,6,1,0.4000313
1,30,120,105,1,8699,8699,2,1,3,-2,2,-2,1,366,437,5,1,0.4166816
1,30,120,105,1,1899,1899,2,1,3,2,-2,-2,0,367,316,5,1,0.3500282
1,30,120,105,1,9599,9599,2,3,2,-2,2,2,1,368,165,6,1,0.350007
1,30,120,105,1,4299,4299,2,1,3,-2,2,-2,1,369,369,6,1,0.5833899
1,30,120,105,1,13199,13199,2,1,2,-2,2,2,1,370,805,6,1,0.5166378
1,30,120,105,1,799,799,2,1,2,2,-2,2,0,371,580,5,1,0.4000342
1,30,120,105,1,3155,3155,1,1,2,-2,2,2,1,372,629,6,1,0.3666642
1,30,120,105,1,15899,15899,2,3,1,2,-2,2,0,373,558,5,0,0.4166174
1,30,120,105,1,10599,10599,2,2,3,-2,2,-2,1,374,183,5,1,1.0499571
1,30,120,105,1,3399,3399,2,1,3,2,-2,-2,0,375,352,5,1,0.4850255
1,30,120,105,1,2655,2655,1,2,3,-2,2,-2,1,376,47,6,1,0.4667956
1,30,120,105,1,15099,15099,2,3,1,2,-2,2,0,377,550,6,1,0.3500515
1,30,120,105,1,13255,13255,1,2,3,-2,2,-2,1,378,239,5,1,0.383342
1,30,120,105,1,7999,7999,2,2,3,-2,2,-2,1,379,143,6,1,0.4166199
1,30,120,105,1,1255,1255,1,2,3,-2,2,-2,1,380,23,6,1,0.4011331
1,30,120,105,1,4799,4799,2,2,3,-2,2,-2,1,381,91,5,1,0.3334622
1,30,120,105,1,7999,7999,2,2,1,-2,2,-2,1,382,711,6,1,0.4333733
1,30,120,105,1,899,899,2,2,3,2,-2,-2,0,383,14,5,0,0.3847548
1,30,120,105,1,12855,12855,1,1,2,-2,2,2,1,384,797,6,1,0.7504255
1,30,120,105,1,8699,8699,2,3,2,2,-2,2,0,385,152,5,1,0.5500954
1,30,120,105,1,12299,12299,2,2,1,2,-2,-2,0,386,782,6,1,0.418194
1,30,120,105,1,455,455,1,2,1,-2,2,-2,1,387,575,5,1,0.4167932
1,30,120,105,1,7699,7699,2,2,3,2,-2,-2,0,388,138,6,1,0.416683
1,30,120,105,1,7599,7599,2,1,2,2,-2,2,0,389,704,5,1,0.4667483
1,30,120,105,1,11099,11099,2,3,1,-2,2,2,1,390,479,6,1,0.3834129
1,30,120,105,1,14155,14155,1,1,3,2,-2,-2,0,391,536,6,1,0.5501261
1,30,120,105,1,10899,10899,2,3,1,2,-2,2,0,392,474,6,1,0.3834777
1,30,120,105,1,12199,12199,2,1,3,-2,2,-2,1,393,497,5,1,0.3676607
1,30,120,105,1,2599,2599,2,3,2,2,-2,2,0,394,44,6,0,0.3667072
1,30,120,105,1,3155,3155,1,3,2,2,-2,2,0,395,60,6,1,0.4001203
1,30,120,105,1,999,999,2,3,2,-2,2,2,1,396,17,5,1,0.4333517
1,30,120,105,1,13155,13155,1,2,3,2,-2,-2,0,397,234,6,1,0.4000262
1,30,120,105,1,13299,13299,2,3,2,-2,2,2,1,398,241,5,1,0.4500361
1,30,120,105,1,2099,2099,2,2,3,2,-2,-2,0,399,34,6,1,0.4334227
1,30,120,105,1,499,499,2,1,2,-2,2,2,1,400,577,5,1,0.400057
1,30,120,105,1,2699,2699,2,1,2,-2,2,2,1,401,617,6,1,0.3833667
1,30,120,105,1,1799,1799,2,1,3,-2,2,-2,1,402,313,6,1,0.4666261
1,30,120,105,1,10799,10799,2,2,3,-2,2,-2,1,403,187,5,1,0.3833502
1,30,120,105,1,2799,2799,2,2,3,-2,2,-2,1,404,51,5,1,0.4000457
1,30,120,105,1,599,599,2,2,3,2,-2,-2,0,405,10,6,1,0.3833766
1,30,120,105,1,14055,14055,1,2,3,2,-2,-2,0,406,250,5,1,0.4500466
1,30,120,105,1,2255,2255,1,3,1,2,-2,2,0,407,322,5,1,0.483367
1,30,120,105,1,2999,2999,2,1,2,-2,2,2,1,408,625,5,1,0.4334406
1,30,120,105,1,2999,2999,2,1,2,2,-2,2,0,409,624,5,1,0.3844622
1,30,120,105,1,2699,2699,2,3,2,-2,2,2,1,410,49,6,1,0.3500485
1,30,120,105,1,14399,14399,2,1,3,-2,2,-2,1,411,545,5,1,0.3666876
1,30,120,105,1,7699,7699,2,2,1,-2,2,-2,1,412,707,6,1,0.4014824
1,30,120,105,1,2955,2955,1,3,1,-2,2,2,1,413,339,5,1,0.3833769
1,30,120,105,1,1255,1255,1,2,1,2,-2,-2,0,414,590,6,1,0.4833587
1,30,120,105,1,12599,12599,2,2,1,-2,2,-2,1,415,791,6,1,0.4167866
1,30,120,105,1,6355,6355,1,1,2,-2,2,2,1,416,681,5,1,0.4500003
1,30,120,105,1,2155,2155,1,3,2,-2,2,2,1,417,37,6,1,0.3500172
1,30,120,105,1,9699,9699,2,2,3,-2,2,-2,1,418,167,5,1,0.4332934
1,30,120,105,1,599,599,2,3,1,2,-2,2,0,419,294,6,1,0.4167856
1,30,120,105,1,17355,17355,1,2,3,-2,2,-2,1,420,283,5,1,0.4001156
1,30,120,105,1,6999,6999,2,2,1,-2,2,-2,1,421,695,6,1,0.5167632
1,30,120,105,1,3155,3155,1,3,2,-2,2,2,1,422,61,6,1,0.5167804
1,30,120,105,1,4899,4899,2,1,3,2,-2,-2,0,423,376,6,1,0.4334167
1,30,120,105,1,5899,5899,2,1,3,-2,2,-2,1,424,389,6,1,0.4000045
1,30,120,105,1,17255,17255,1,1,2,2,-2,2,0,425,848,6,1,0.3833643
1,30,120,105,1,7099,7099,2,3,2,2,-2,2,0,426,128,5,1,0.4833785
1,30,120,105,1,10199,10199,2,3,1,-2,2,2,1,427,459,6,1,0.3333806
1,30,120,105,1,14055,14055,1,2,1,-2,2,-2,1,428,819,5,1,0.3833711
1,30,120,105,1,8199,8199,2,3,1,2,-2,2,0,429,430,6,1,0.3167603
1,30,120,105,1,6955,6955,1,1,2,-2,2,2,1,430,693,5,1,0.4521599
1,30,120,105,1,6955,6955,1,3,2,-2,2,2,1,431,125,5,1,0.4000234
1,30,120,105,1,3599,3599,2,2,1,-2,2,-2,1,432,639,6,1,0.4166442
1,30,120,105,1,14199,14199,2,3,1,-2,2,2,1,433,539,5,1,0.5019176
1,30,120,105,1,6699,6699,2,3,1,2,-2,2,0,434,402,6,1,0.3666281
1,30,120,105,1,12299,12299,2,2,3,2,-2,-2,0,435,214,6,1,0.4167165
1,30,120,105,1,8199,8199,2,2,1,-2,2,-2,1,436,715,5,0,0.3666746
1,30,120,105,1,10699,10699,2,1,3,-2,2,-2,1,437,469,6,1,0.4833286
1,30,120,105,1,599,599,2,2,3,-2,2,-2,1,438,11,6,1,0.4348171
1,30,120,105,1,1855,1855,1,2,1,-2,2,-2,1,439,599,5,1,0.4166845
1,30,120,105,1,11699,11699,2,3,1,2,-2,2,0,440,486,6,1,0.4500199
1,30,120,105,1,5799,5799,2,2,3,-2,2,-2,1,441,103,5,1,0.4166924
1,30,120,105,1,3899,3899,2,3,2,2,-2,2,0,442,76,5,1,0.4832539
1,30,120,105,1,9899,9899,2,1,2,-2,2,2,1,443,737,6,1,0.4000758
1,30,120,105,1,11199,11199,2,3,2,-2,2,2,1,444,197,5,1,0.4834152
1,30,120,105,1,12499,12499,2,2,1,-2,2,-2,1,445,787,5,1,0.5168124
1,30,120,105,1,8799,8799,2,2,3,-2,2,-2,1,446,155,6,1,0.4334617
1,30,120,105,1,2899,2899,2,1,2,-2,2,2,1,447,621,6,1,0.3833931
1,30,120,105,1,2955,2955,1,2,1,-2,2,-2,1,448,623,5,1,0.3500164
1,30,120,105,1,1099,1099,2,2,1,-2,2,-2,1,449,587,6,1,0.4167157
1,30,120,105,1,4599,4599,2,1,2,-2,2,2,1,450,657,6,1,0.3834681
1,30,120,105,1,3155,3155,1,1,2,2,-2,2,0,451,628,6,1,0.3666832
1,30,120,105,1,9399,9399,2,1,3,-2,2,-2,1,452,445,6,1,0.5167259
1,30,120,105,1,13899,13899,2,1,2,2,-2,2,0,453,816,6,1,0.4667863
1,30,120,105,1,7799,7799,2,3,2,2,-2,2,0,454,140,5,1,0.4512337
1,30,120,105,1,13155,13155,1,2,1,-2,2,-2,1,455,803,6,1,0.5336934
1,30,120,105,1,5699,5699,2,3,2,2,-2,2,0,456,100,6,1,0.4000574
1,30,120,105,1,1799,1799,2,1,2,-2,2,2,1,457,597,6,1,0.3834786
1,30,120,105,1,299,299,2,2,3,2,-2,-2,0,458,2,5,1,0.383377
1,30,120,105,1,6899,6899,2,2,3,-2,2,-2,1,459,123,5,1,0.4001361
1,30,120,105,1,12355,12355,1,1,2,2,-2,2,0,460,784,6,1,0.3833821
1,30,120,105,1,12599,12599,2,2,1,2,-2,-2,0,461,790,6,1,0.6834632
1,30,120,105,1,12555,12555,1,2,3,2,-2,2,0,462,220,5,1,0.4833682
1,30,120,105,1,12799,12799,2,2,1,-2,2,-2,1,463,795,6,1,0.4334468
1,30,120,105,1,14199,14199,2,2,1,2,-2,-2,0,464,822,5,1,0.4333839
1,30,120,105,1,2655,2655,1,2,1,-2,2,-2,1,465,615,6,1,0.4667971
1,30,120,105,1,5299,5299,2,1,3,-2,2,-2,1,466,381,6,1,0.4334356
1,30,120,105,1,1899,1899,2,1,2,2,-2,2,0,467,600,5,1,0.3667168
1,30,120,105,1,5299,5299,2,1,3,2,-2,-2,0,468,380,6,1,0.450115
1,30,120,105,1,12199,12199,2,1,2,2,-2,2,0,469,780,5,1,0.4001155
1,30,120,105,1,4399,4399,2,2,1,-2,2,-2,1,470,655,5,1,0.4667798
1,30,120,105,1,9599,9599,2,1,2,-2,2,2,1,471,733,6,1,0.3834012
1,30,120,105,1,4199,4199,2,2,3,-2,2,-2,1,472,83,5,1,0.3667863
1,30,120,105,1,11799,11799,2,2,3,2,-2,-2,0,473,206,5,1,0.4333947
1,30,120,105,1,10899,10899,2,2,1,-2,2,-2,1,474,759,6,1,0.433356
1,30,120,105,1,9699,9699,2,2,3,2,-2,-2,0,475,166,5,1,0.433388
1,30,120,105,1,11399,11399,2,2,1,-2,2,-2,1,476,767,6,1,0.4500345
1,30,120,105,1,3399,3399,2,1,3,-2,2,-2,1,477,353,5,1,0.4166848
1,30,120,105,1,1399,1399,2,1,2,-2,2,2,1,478,593,6,1,0.3667911
1,30,120,105,1,14399,14399,2,1,2,2,-2,2,0,479,828,5,1,0.4667745
1,30,120,105,1,455,455,1,3,1,2,-2,2,0,480,290,6,0,0.3513878
1,30,120,105,1,12555,12555,1,2,3,-2,2,2,1,481,221,5,1,0.4337723
1,30,120,105,1,999,999,2,1,2,-2,2,2,1,482,585,5,1,0.4167972
1,30,120,105,1,4199,4199,2,2,1,2,-2,-2,0,483,650,5,1,0.4167173
1,30,120,105,1,2799,2799,2,2,1,2,-2,-2,0,484,618,5,1,0.3840742
1,30,120,105,1,2399,2399,2,2,1,-2,2,-2,1,485,611,6,1,0.4668053
1,30,120,105,1,10355,10355,1,1,2,-2,2,2,1,486,745,6,1,0.4167161
1,30,120,105,1,7299,7299,2,3,2,2,-2,2,0,487,132,5,1,0.4009726
1,30,120,105,1,5799,5799,2,3,1,-2,2,2,1,488,387,5,1,0.4167076
1,30,120,105,1,14355,14355,1,2,3,2,-2,-2,0,489,258,5,1,0.4333567
1,30,120,105,1,10099,10099,2,2,1,-2,2,-2,1,490,739,5,1,0.3500377
1,30,120,105,1,14155,14155,1,3,2,2,-2,2,0,491,252,6,1,0.3500505
1,30,120,105,1,5299,5299,2,1,2,2,-2,2,0,492,664,6,1,0.3667268
1,30,120,105,1,13155,13155,1,2,3,-2,2,-2,1,493,235,6,1,0.533367
1,30,120,105,1,2599,2599,2,1,3,-2,2,-2,1,494,329,5,1,0.3833723
1,30,120,105,1,9899,9899,2,1,3,-2,2,-2,1,495,453,6,1,0.4001364
1,30,120,105,1,6699,6699,2,3,1,-2,2,2,1,496,403,6,1,0.433365
1,30,120,105,1,14499,14499,2,2,1,2,-2,-2,0,497,830,6,1,0.4833779
1,30,120,105,1,16299,16299,2,2,3,2,-2,-2,0,498,278,6,1,0.4345768
1,30,120,105,1,5799,5799,2,2,1,2,-2,-2,0,499,670,5,1,0.416724
1,30,120,105,1,10999,10999,2,1,2,2,-2,2,0,500,760,5,1,0.4500126
1,30,120,105,1,3099,3099,2,2,3,2,-2,-2,0,501,58,6,1,0.5334129
1,30,120,105,1,2599,2599,2,1,2,-2,2,2,1,502,613,5,1,0.4666471
1,30,120,105,1,7399,7399,2,3,1,-2,2,2,1,503,419,6,1,0.5500267
1,30,120,105,1,1099,1099,2,2,1,2,-2,-2,0,504,586,6,1,0.4340401
1,30,120,105,1,10455,10455,1,2,3,-2,2,-2,1,505,179,5,1,0.4167593
1,30,120,105,1,10899,10899,2,2,1,2,-2,-2,0,506,758,6,1,0.4667612
1,30,120,105,1,4899,4899,2,1,2,2,-2,2,0,507,660,6,1,0.4167696
1,30,120,105,1,12599,12599,2,3,1,2,-2,2,0,508,506,6,1,0.4001411
1,30,120,105,1,8399,8399,2,1,3,-2,2,-2,1,509,433,5,1,0.4166515
1,30,120,105,1,10455,10455,1,2,1,2,-2,-2,0,510,746,5,1,0.5000942
1,30,120,105,1,14699,14699,2,3,2,-2,2,2,1,511,265,5,1,0.4168015
1,30,120,105,1,2099,2099,2,3,1,-2,2,2,1,512,319,6,1,0.4168857
1,30,120,105,1,10899,10899,2,3,1,-2,2,2,1,513,475,6,1,0.4667819
1,30,120,105,1,15799,15799,2,1,3,2,-2,-2,0,514,556,5,1,0.4000447
1,30,120,105,1,499,499,2,1,3,2,-2,-2,0,515,292,5,1,0.4333603
1,30,120,105,1,17255,17255,1,3,2,-2,2,2,1,516,281,6,1,0.4167293
1,30,120,105,1,7599,7599,2,1,3,2,-2,-2,0,517,420,5,1,0.4669847
1,30,120,105,1,4399,4399,2,2,3,2,-2,-2,0,518,86,5,1,0.5167154
1,30,120,105,1,2955,2955,1,2,1,2,-2,-2,0,519,622,5,1,0.4000482
1,30,120,105,1,16199,16199,2,1,2,2,-2,2,0,520,844,6,0,0.3667048
1,30,120,105,1,6355,6355,1,1,3,2,-2,-2,0,521,396,5,1,0.4166316
1,30,120,105,1,1199,1199,2,3,2,-2,2,2,1,522,21,5,1,0.4166187
1,30,120,105,1,10855,10855,1,1,2,2,-2,2,0,523,756,5,1,0.5833893
1,30,120,105,1,2899,2899,2,1,3,-2,2,-2,1,524,337,6,1,0.5001323
1,30,120,105,1,7799,7799,2,3,2,-2,2,2,1,525,141,5,1,0.4833875
1,30,120,105,1,799,799,2,3,2,-2,2,2,1,526,13,5,1,0.5000747
1,30,120,105,1,2299,2299,2,1,3,-2,2,-2,1,527,325,5,1,0.4333757
1,30,120,105,1,12999,12999,2,2,1,2,-2,-2,0,528,798,5,1,0.4001393
1,30,120,105,1,13699,13699,2,3,2,2,-2,2,0,529,244,5,1,0.4009105
1,30,120,105,1,15099,15099,2,2,3,-2,2,-2,1,530,267,6,1,0.5167634
1,30,120,105,1,12999,12999,2,2,3,-2,2,-2,1,531,231,5,1,0.4166675
1,30,120,105,1,3199,3199,2,2,1,2,-2,-2,0,532,630,5,1,0.3678046
1,30,120,105,1,13155,13155,1,3,1,2,-2,2,0,533,518,6,1,0.6000517
1,30,120,105,1,14299,14299,2,3,2,-2,2,2,1,534,257,6,1,0.5000804
1,30,120,105,1,3199,3199,2,3,1,-2,2,2,1,535,347,5,1,0.4334361
1,30,120,105,1,10555,10555,1,1,2,2,-2,2,0,536,748,6,1,0.4834433
1,30,120,105,1,3799,3799,2,3,1,-2,2,2,1,537,359,6,1,0.4001156
1,30,120,105,1,2599,2599,2,3,2,-2,2,2,1,538,45,5,1,0.4017037
1,30,120,105,1,10999,10999,2,1,3,2,-2,-2,0,539,476,5,1,0.433356
1,30,120,105,1,8799,8799,2,3,1,2,-2,2,0,540,438,6,1,0.3834819
1,30,120,105,1,899,899,2,2,1,2,-2,-2,0,541,582,6,1,0.466762
1,30,120,105,1,5599,5599,2,3,1,2,-2,2,0,542,382,5,1,0.400134
1,30,120,105,1,17355,17355,1,2,1,-2,2,-2,1,543,851,5,1,0.5000915
1,30,120,105,1,5799,5799,2,2,1,-2,2,-2,1,544,671,5,1,0.433336
1,30,120,105,1,14399,14399,2,1,2,-2,2,2,1,545,829,5,1,0.4999785
1,30,120,105,1,14055,14055,1,2,3,-2,2,-2,1,546,251,6,0,0.3834107
1,30,120,105,1,3099,3099,2,3,1,2,-2,2,0,547,342,6,1,0.4334087
1,30,120,105,1,4999,4999,2,3,1,2,-2,2,0,548,378,5,1,0.4167041
1,30,120,105,1,13055,13055,1,1,2,-2,2,2,1,549,801,5,1,0.4167685
1,30,120,105,1,2699,2699,2,3,2,2,-2,2,0,550,48,5,0,0.4000252
1,30,120,105,1,199,199,2,3,2,2,-2,2,0,551,0,6,1,0.6666395
1,30,120,105,1,2399,2399,2,2,1,2,-2,-2,0,552,610,6,1,0.5167588
1,30,120,105,1,4399,4399,2,2,3,-2,2,-2,1,553,87,5,1,0.4166814
1,30,120,105,1,16299,16299,2,3,1,-2,2,2,1,554,563,6,1,0.4834113
1,30,120,105,1,3355,3355,1,2,1,-2,2,-2,1,555,635,5,1,0.383413
1,30,120,105,1,455,455,1,3,1,-2,2,2,1,556,291,5,1,0.466685
1,30,120,105,1,2099,2099,2,3,1,2,-2,2,0,557,318,6,1,0.500037
1,30,120,105,1,11755,11755,1,1,3,2,-2,-2,0,558,488,6,1,0.5000479
1,30,120,105,1,10999,10999,2,3,2,-2,2,2,1,559,193,5,1,0.4001307
1,30,120,105,1,799,799,2,1,2,-2,2,2,1,560,581,5,1,0.433461
1,30,120,105,1,11399,11399,2,3,1,2,-2,2,0,561,482,6,1,0.3666316
1,30,120,105,1,4099,4099,2,2,3,2,-2,-2,0,562,78,6,1,0.4501358
1,30,120,105,1,6699,6699,2,2,1,-2,2,-2,1,563,687,6,1,0.3668159
1,30,120,105,1,11399,11399,2,2,3,-2,2,-2,1,564,199,6,1,0.4001323
1,30,120,105,1,13499,13499,2,2,1,-2,2,-2,1,565,811,6,1,0.3834169
1,30,120,105,1,12199,12199,2,1,3,2,-2,-2,0,566,496,5,1,0.3500181
1,30,120,105,1,15299,15299,2,1,3,-2,2,-2,1,567,553,5,1,0.3833827
1,30,120,105,1,599,599,2,3,1,-2,2,2,1,568,295,6,1,0.3833762
1,30,120,105,1,199,199,2,1,2,2,-2,2,0,569,568,6,1,0.4000001
1,30,120,105,1,10155,10155,1,3,2,-2,2,2,1,570,173,5,1,0.5334125
1,30,120,105,1,4399,4399,2,3,1,2,-2,2,0,571,370,5,1,0.4667767
1,30,120,105,1,13499,13499,2,2,3,2,-2,-2,0,572,242,6,1,0.4667407
1,30,120,105,1,5699,5699,2,1,3,-2,2,-2,1,573,385,6,1,0.5333535
1,30,120,105,1,3099,3099,2,2,1,2,-2,-2,0,574,626,6,1,0.483365
1,30,120,105,1,13499,13499,2,2,3,-2,2,-2,1,575,243,6,1,0.4501285
1,30,120,105,1,14355,14355,1,2,1,2,-2,-2,0,576,826,5,1,0.4666557
1,30,120,105,1,455,455,1,2,1,2,-2,-2,0,577,574,5,1,0.5333714
1,30,120,105,1,10699,10699,2,1,2,2,-2,2,0,578,752,6,1,0.7167174
1,30,120,105,1,3699,3699,2,1,2,2,-2,2,0,579,640,5,1,0.5501079
1,30,120,105,1,16299,16299,2,2,3,-2,2,-2,1,580,279,5,0,0.5833034
1,30,120,105,1,9699,9699,2,3,1,-2,2,2,1,581,451,5,1,0.7676381
1,30,120,105,1,4299,4299,2,3,2,2,-2,2,0,582,84,6,1,0.4834007
1,30,120,105,1,14155,14155,1,3,2,-2,2,2,1,583,253,6,1,0.6000104
1,30,120,105,1,11199,11199,2,1,2,2,-2,2,0,584,764,5,1,0.5010446
1,30,120,105,1,2155,2155,1,1,2,-2,2,2,1,585,605,6,1,0.4833306
1,30,120,105,1,9255,9255,1,2,1,-2,2,-2,1,586,727,6,1,0.4833384
1,30,120,105,1,13299,13299,2,1,2,-2,2,2,1,587,809,5,1,0.4333358
1,30,120,105,1,3799,3799,2,2,1,-2,2,-2,1,588,643,6,1,0.4834352
1,30,120,105,1,1799,1799,2,1,3,2,-2,-2,0,589,312,6,1,0.4666827
1,30,120,105,1,1899,1899,2,1,3,-2,2,-2,1,590,317,5,1,0.3848032
1,30,120,105,1,3799,3799,2,2,3,-2,2,-2,1,591,75,6,1,0.5167292
1,30,120,105,1,13199,13199,2,3,2,-2,2,2,1,592,237,6,1,0.6689728
1,30,120,105,1,1099,1099,2,2,3,2,-2,-2,0,593,18,6,1,0.5344495
1,30,120,105,1,6199,6199,2,1,2,2,-2,2,0,594,676,6,1,0.4166204
1,30,120,105,1,15899,15899,2,2,1,2,-2,-2,0,595,842,6,1,0.4501331
1,30,120,105,1,9499,9499,2,2,1,-2,2,-2,1,596,731,5,1,0.4167957
1,30,120,105,1,12099,12099,2,3,2,2,-2,2,0,597,208,6,1,0.3833802
1,30,120,105,1,455,455,1,2,3,2,-2,-2,0,598,6,5,1,0.4167989
1,30,120,105,1,12855,12855,1,1,2,2,-2,2,0,599,796,6,1,0.366788
1,30,120,105,1,5699,5699,2,1,3,2,-2,-2,0,600,384,6,1,0.5006767
1,30,120,105,1,1399,1399,2,3,2,2,-2,2,0,601,24,6,1,0.5167558
1,30,120,105,1,9199,9199,2,1,3,2,-2,-2,0,602,440,5,1,0.4000507
1,30,120,105,1,1855,1855,1,2,1,2,-2,-2,0,603,598,5,1,0.3834311
1,30,120,105,1,4799,4799,2,2,3,2,-2,-2,0,604,90,5,1,0.433359
1,30,120,105,1,10555,10555,1,3,2,-2,2,2,1,605,181,6,1,0.4167931
1,30,120,105,1,10799,10799,2,3,1,2,-2,2,0,606,470,5,1,0.4666975
1,30,120,105,1,10599,10599,2,2,1,2,-2,-2,0,607,750,5,1,0.4835357
1,30,120,105,1,1199,1199,2,1,3,-2,2,-2,1,608,305,5,1,0.4501211
1,30,120,105,1,7199,7199,2,2,3,2,-2,-2,0,609,130,6,1,0.4334521
1,30,120,105,1,4899,4899,2,3,2,2,-2,2,0,610,92,6,1,0.4166872
1,30,120,105,1,2799,2799,2,2,1,-2,2,-2,1,611,619,5,1,0.4334736
1,30,120,105,1,10455,10455,1,3,1,2,-2,2,0,612,462,5,1,0.4666936
1,30,120,105,1,2255,2255,1,2,1,2,-2,-2,0,613,606,5,1,0.383458
1,30,120,105,1,6355,6355,1,1,3,-2,2,-2,1,614,397,5,1,0.3667427
1,30,120,105,1,13855,13855,1,2,1,-2,2,-2,1,615,815,6,1,0.4501054
1,30,120,105,1,6199,6199,2,1,3,2,-2,-2,0,616,392,6,1,0.5667047
1,30,120,105,1,4399,4399,2,3,1,-2,2,2,1,617,371,5,1,0.5500251
1,30,120,105,1,11399,11399,2,2,3,2,-2,-2,0,618,198,6,1,0.5833646
1,30,120,105,1,10555,10555,1,1,3,-2,2,-2,1,619,465,6,1,0.4834802
1,30,120,105,1,9699,9699,2,2,1,2,-2,-2,0,620,734,5,1,0.4001498
1,30,120,105,1,16199,16199,2,3,2,-2,2,2,1,621,277,5,1,0.5166485
1,30,120,105,1,3399,3399,2,1,2,2,-2,2,0,622,636,5,1,0.5001396
1,30,120,105,1,13699,13699,2,1,3,2,-2,-2,0,623,528,5,1,0.4166688
1,30,120,105,1,2155,2155,1,1,2,2,-2,2,0,624,604,6,1,0.3833609
1,30,120,105,1,1799,1799,2,3,2,-2,2,2,1,625,29,6,1,0.3834585
1,30,120,105,1,2655,2655,1,2,1,2,-2,-2,0,626,614,6,1,0.5337007
1,30,120,105,1,1699,1699,2,2,1,-2,2,-2,1,627,595,5,1,0.4667589
1,30,120,105,1,15299,15299,2,1,2,-2,2,2,1,628,837,5,1,0.4167878
1,30,120,105,1,6899,6899,2,3,1,-2,2,2,1,629,407,5,1,0.4333326
1,30,120,105,1,3899,3899,2,1,3,2,-2,-2,0,630,360,5,1,0.366688
1,30,120,105,1,11099,11099,2,2,3,2,-2,-2,0,631,194,6,1,0.4500429
1,30,120,105,1,6699,6699,2,2,3,2,-2,-2,0,632,118,6,1,0.4000331
1,30,120,105,1,2399,2399,2,3,1,-2,2,2,1,633,327,6,1,0.3677983
1,30,120,105,1,14355,14355,1,3,1,2,-2,2,0,634,542,5,1,0.4334299
1,30,120,105,1,11799,11799,2,2,1,2,-2,-2,0,635,774,5,1,0.3667987
1,30,120,105,1,13499,13499,2,3,1,-2,2,2,1,636,527,6,1,0.4001317
1,30,120,105,1,4199,4199,2,2,3,2,-2,-2,0,637,82,5,1,0.3500169
1,30,120,105,1,1699,1699,2,2,3,2,-2,-2,0,638,26,5,1,0.3333434
1,30,120,105,1,9199,9199,2,3,2,2,-2,2,0,639,156,5,1,0.3666973
1,30,120,105,1,1699,1699,2,3,1,-2,2,2,1,640,311,5,1,0.3833479
1,30,120,105,1,12355,12355,1,1,3,-2,2,-2,1,641,501,6,1,0.3833467
1,30,120,105,1,12855,12855,1,1,3,2,-2,-2,0,642,512,6,1,0.350119
1,30,120,105,1,15799,15799,2,1,2,-2,2,2,1,643,841,5,1,0.40152
1,30,120,105,1,11399,11399,2,2,1,2,-2,-2,0,644,766,6,1,0.3668086
1,30,120,105,1,10155,10155,1,1,3,-2,2,-2,1,645,457,5,1,0.366784
1,30,120,105,1,6699,6699,2,2,3,-2,2,-2,1,646,119,6,1,0.3834617
1,30,120,105,1,3599,3599,2,2,1,2,-2,-2,0,647,638,6,1,0.3833682
1,30,120,105,1,3899,3899,2,1,2,-2,2,2,1,648,645,5,1,0.4667236
1,30,120,105,1,2155,2155,1,1,3,2,-2,-2,0,649,320,6,1,0.450036
1,30,120,105,1,14355,14355,1,2,1,-2,2,-2,1,650,827,5,1,0.3834415
1,30,120,105,1,6999,6999,2,3,1,-2,2,2,1,651,411,6,1,0.3667899
1,30,120,105,1,13055,13055,1,1,2,2,-2,2,0,652,800,5,1,0.4500471
1,30,120,105,1,13155,13155,1,2,1,2,-2,-2,0,653,802,6,1,0.450017
1,30,120,105,1,1399,1399,2,1,3,-2,2,-2,1,654,309,6,1,0.4501378
1,30,120,105,1,2099,2099,2,2,1,-2,2,-2,1,655,603,6,1,0.4514829
1,30,120,105,1,199,199,2,1,2,-2,2,2,1,656,569,6,1,0.3833396
1,30,120,105,1,8499,8499,2,2,1,2,-2,-2,0,657,718,6,1,0.4667721
1,30,120,105,1,11799,11799,2,3,1,2,-2,2,0,658,490,5,1,0.3834142
1,30,120,105,1,6955,6955,1,1,2,2,-2,2,0,659,692,5,1,0.383427
1,30,120,105,1,12099,12099,2,1,3,-2,2,-2,1,660,493,6,1,0.4006863
1,30,120,105,1,14299,14299,2,1,2,2,-2,2,0,661,824,6,1,0.4529932
1,30,120,105,1,10999,10999,2,1,3,-2,2,-2,1,662,477,5,1,0.4001394
1,30,120,105,1,12599,12599,2,2,3,2,-2,-2,0,663,222,6,1,0.5166214
1,30,120,105,1,13499,13499,2,2,1,2,-2,-2,0,664,810,6,1,0.5000547
1,30,120,105,1,4155,4155,1,3,2,-2,2,2,1,665,81,6,1,0.466773
1,30,120,105,1,6899,6899,2,3,1,2,-2,2,0,666,406,5,1,0.4833212
1,30,120,105,1,13299,13299,2,1,2,2,-2,2,0,667,808,5,1,0.4500103
1,30,120,105,1,17255,17255,1,3,2,2,-2,2,0,668,280,6,1,0.466769
1,30,120,105,1,4899,4899,2,1,3,-2,2,-2,1,669,377,6,1,0.9333366
1,30,120,105,1,10099,10099,2,2,1,2,-2,-2,0,670,738,5,1,0.3667876
1,30,120,105,1,13055,13055,1,1,3,-2,2,-2,1,671,517,5,1,0.4000071
1,30,120,105,1,12099,12099,2,1,2,-2,2,2,1,672,777,6,1,0.3666459
1,30,120,105,1,10355,10355,1,1,2,2,-2,2,0,673,744,6,1,0.3507711
1,30,120,105,1,17355,17355,1,3,1,2,-2,2,0,674,566,5,1,0.4334084
1,30,120,105,1,14499,14499,2,3,1,-2,2,2,1,675,547,6,1,0.3500319
1,30,120,105,1,12799,12799,2,3,1,-2,2,2,1,676,511,6,1,0.3834008
1,30,120,105,1,999,999,2,1,3,-2,2,-2,1,677,301,5,1,0.3334538
1,30,120,105,1,11599,11599,2,1,2,2,-2,2,0,678,768,6,0,0.3501381
1,30,120,105,1,10155,10155,1,1,2,2,-2,2,0,679,740,5,1,0.4500369
1,30,120,105,1,7399,7399,2,2,3,-2,2,-2,1,680,135,5,0,0.3834783
1,30,120,105,1,1255,1255,1,2,3,2,-2,-2,0,681,22,6,1,0.5000221
1,30,120,105,1,8099,8099,2,1,2,-2,2,2,1,682,713,5,1,0.3833348
1,30,120,105,1,12155,12155,1,2,1,-2,2,-2,1,683,779,5,1,0.4167735
1,30,120,105,1,8799,8799,2,2,3,2,-2,-2,0,684,154,6,1,0.4833338
1,30,120,105,1,8399,8399,2,3,2,2,-2,2,0,685,148,5,1,0.383368
1,30,120,105,1,8099,8099,2,3,2,-2,2,2,1,686,145,5,1,0.3833508
1,30,120,105,1,13899,13899,2,3,2,-2,2,2,1,687,249,6,1,0.5000621
1,30,120,105,1,5699,5699,2,1,2,-2,2,2,1,688,669,6,1,0.3668127
1,30,120,105,1,5899,5899,2,1,2,-2,2,2,1,689,673,6,1,0.5000399
1,30,120,105,1,15299,15299,2,3,2,2,-2,2,0,690,268,5,1,0.4500117
1,30,120,105,1,4899,4899,2,1,2,-2,2,2,1,691,661,6,1,0.5333759
1,30,120,105,1,11199,11199,2,1,2,-2,2,2,1,692,765,5,1,0.4667114
1,30,120,105,1,9599,9599,2,1,3,2,-2,-2,0,693,448,6,1,0.4667752
1,30,120,105,1,2899,2899,2,3,2,2,-2,2,0,694,52,5,0,0.4834116
1,30,120,105,1,6899,6899,2,2,1,-2,2,-2,1,695,691,5,1,0.4681214
1,30,120,105,1,16299,16299,2,2,1,2,-2,-2,0,696,846,6,1,0.40005
1,30,120,105,1,6355,6355,1,3,2,2,-2,2,0,697,112,5,1,0.450067
1,30,120,105,1,7199,7199,2,2,1,2,-2,-2,0,698,698,6,1,0.4500804
1,30,120,105,1,14499,14499,2,2,3,2,-2,-2,0,699,262,6,1,0.6180923
1,30,120,105,1,8699,8699,2,1,2,-2,2,2,1,700,721,5,1,0.4667876
1,30,120,105,1,4999,4999,2,3,1,-2,2,2,1,701,379,5,1,0.4166299
1,30,120,105,1,3699,3699,2,1,3,2,-2,-2,0,702,356,5,1,0.4000266
1,30,120,105,1,11399,11399,2,3,1,-2,2,2,1,703,483,6,1,0.4333527
1,30,120,105,1,7099,7099,2,3,2,-2,2,2,1,704,129,5,1,0.4667446
1,30,120,105,1,8699,8699,2,3,2,-2,2,2,1,705,153,5,1,0.50013
1,30,120,105,1,15299,15299,2,3,2,-2,2,2,1,706,269,5,1,0.4340518
1,30,120,105,1,299,299,2,2,1,-2,2,-2,1,707,571,5,1,0.4834163
1,30,120,105,1,13699,13699,2,1,2,2,-2,2,0,708,812,5,1,0.4334164
1,30,120,105,1,2255,2255,1,2,3,-2,2,-2,1,709,39,5,1,0.3834408
1,30,120,105,1,16199,16199,2,1,3,2,-2,-2,0,710,560,5,1,0.4000231
1,30,120,105,1,9499,9499,2,2,1,2,-2,-2,0,711,730,5,1,0.4666864
1,30,120,105,1,8799,8799,2,2,1,2,-2,-2,0,712,722,6,1,0.4333558
1,30,120,105,1,2655,2655,1,3,1,-2,2,2,1,713,331,6,1,0.4000442
1,30,120,105,1,14199,14199,2,2,3,-2,2,-2,1,714,255,5,1,0.3333689
1,30,120,105,1,10099,10099,2,2,3,-2,2,-2,1,715,171,5,1,0.3682835
1,30,120,105,1,14699,14699,2,1,2,-2,2,2,1,716,833,6,0,0.3167449
1,30,120,105,1,399,399,2,1,2,-2,2,2,1,717,573,6,1,0.4500268
1,30,120,105,1,8499,8499,2,2,3,2,-2,-2,0,718,150,6,1,0.4333671
1,30,120,105,1,399,399,2,3,2,2,-2,2,0,719,4,6,1,0.4334375
1,30,120,105,1,1699,1699,2,2,3,-2,2,-2,1,720,27,5,1,0.3334111
1,30,120,105,1,6299,6299,2,2,3,-2,2,-2,1,721,111,5,1,0.3999989
1,30,120,105,1,10699,10699,2,1,2,-2,2,2,1,722,753,6,1,0.3679366
1,30,120,105,1,299,299,2,3,1,-2,2,2,1,723,287,5,1,0.3666389
1,30,120,105,1,11199,11199,2,3,2,2,-2,2,0,724,196,6,0,0.3666568
1,30,120,105,1,1199,1199,2,1,2,-2,2,2,1,725,589,5,1,0.4181332
1,30,120,105,1,2099,2099,2,2,1,2,-2,-2,0,726,602,6,1,0.4667885
1,30,120,105,1,13299,13299,2,3,2,2,-2,2,0,727,240,5,1,0.4834031
1,30,120,105,1,2255,2255,1,3,1,-2,2,2,1,728,323,5,1,0.5000276
1,30,120,105,1,4299,4299,2,3,2,-2,2,2,1,729,85,6,1,0.5673907
1,30,120,105,1,7399,7399,2,3,1,2,-2,2,0,730,418,6,1,0.4833556
1,30,120,105,1,11699,11699,2,2,1,-2,2,-2,1,731,771,6,1,0.5166742
1,30,120,105,1,12599,12599,2,2,3,-2,2,-2,1,732,223,6,1,0.567438
1,30,120,105,1,7399,7399,2,2,3,2,-2,-2,0,733,134,6,1,0.4333955
1,30,120,105,1,4599,4599,2,1,3,-2,2,-2,1,734,373,6,1,0.4167712
1,30,120,105,1,199,199,2,1,3,-2,2,-2,1,735,285,6,1,0.4833443
1,30,120,105,1,7999,7999,2,2,3,2,-2,-2,0,736,142,6,1,0.416693
1,30,120,105,1,14199,14199,2,3,1,2,-2,2,0,737,538,5,1,0.3834099
1,30,120,105,1,4099,4099,2,2,3,-2,2,-2,1,738,79,6,1,0.3834763
1,30,120,105,1,2655,2655,1,2,3,2,-2,-2,0,739,46,6,1,0.4167422
1,30,120,105,1,10455,10455,1,3,1,-2,2,2,1,740,463,5,1,0.4667074
1,30,120,105,1,1255,1255,1,3,1,-2,2,2,1,741,307,6,1,0.4167804
1,30,120,105,1,3699,3699,2,1,2,-2,2,2,1,742,641,5,1,0.4833724
1,30,120,105,1,9699,9699,2,2,1,-2,2,-2,1,743,735,5,1,0.4666725
1,30,120,105,1,9899,9899,2,1,3,2,-2,-2,0,744,452,6,1,0.4189352
1,30,120,105,1,10855,10855,1,1,3,2,-2,-2,0,745,472,5,1,0.4666434
1,30,120,105,1,6299,6299,2,2,3,2,-2,-2,0,746,110,5,1,0.3668373
1,30,120,105,1,8199,8199,2,2,3,2,-2,-2,0,747,146,6,1,0.4500019
1,30,120,105,1,10799,10799,2,2,1,2,-2,-2,0,748,754,5,1,0.4000612
1,30,120,105,1,11755,11755,1,1,2,-2,2,2,1,749,773,6,1,0.4667119
1,30,120,105,1,10355,10355,1,3,2,2,-2,2,0,750,176,6,1,0.4667803
1,30,120,105,1,12099,12099,2,3,2,-2,2,2,1,751,209,5,0,0.5014672
1,30,120,105,1,2255,2255,1,2,1,-2,2,-2,1,752,607,5,1,0.4167815
1,30,120,105,1,2155,2155,1,3,2,2,-2,2,0,753,36,6,1,0.4000226
1,30,120,105,1,3899,3899,2,3,2,-2,2,2,1,754,77,5,1,0.4667696
1,30,120,105,1,12355,12355,1,3,2,2,-2,2,0,755,216,6,1,0.3673293
1,30,120,105,1,11199,11199,2,1,3,2,-2,-2,0,756,480,5,1,0.3666331
1,30,120,105,1,7799,7799,2,1,3,2,-2,-2,0,757,424,5,1,0.368742
1,30,120,105,1,9399,9399,2,1,2,-2,2,2,1,758,729,6,1,0.416659
1,30,120,105,1,12199,12199,2,3,2,-2,2,2,1,759,213,5,1,0.433447
1,30,120,105,1,12999,12999,2,2,3,2,-2,-2,0,760,230,5,1,0.4167503
1,30,120,105,1,10555,10555,1,1,2,-2,2,2,1,761,749,6,1,0.4501418
1,30,120,105,1,17355,17355,1,3,1,-2,2,2,1,762,567,5,1,0.416694
1,30,120,105,1,8099,8099,2,3,2,2,-2,2,0,763,144,5,1,0.4500171
1,30,120,105,1,1099,1099,2,3,1,-2,2,2,1,764,303,6,1,0.4000975
1,30,120,105,1,899,899,2,3,1,2,-2,2,0,765,298,6,1,0.3502774
1,30,120,105,1,5299,5299,2,3,2,-2,2,2,1,766,97,6,1,0.3833525
1,30,120,105,1,1099,1099,2,3,1,2,-2,2,0,767,302,6,1,0.4500758
1,30,120,105,1,12355,12355,1,1,2,-2,2,2,1,768,785,6,1,0.3342131
1,30,120,105,1,4799,4799,2,2,1,-2,2,-2,1,769,659,5,1,0.4168266
1,30,120,105,1,4599,4599,2,3,2,-2,2,2,1,770,89,6,1,0.3334458
1,30,120,105,1,899,899,2,3,1,-2,2,2,1,771,299,6,1,0.3666964
1,30,120,105,1,5899,5899,2,3,2,-2,2,2,1,772,105,6,1,0.3333626
1,30,120,105,1,16299,16299,2,3,1,2,-2,2,0,773,562,6,1,0.3500461
1,30,120,105,1,4155,4155,1,1,3,-2,2,-2,1,774,365,6,1,0.4333527
1,30,120,105,1,12355,12355,1,1,3,2,-2,-2,0,775,500,6,1,0.3333773
1,30,120,105,1,6099,6099,2,3,1,2,-2,2,0,776,390,5,1,0.4167323
1,30,120,105,1,7099,7099,2,1,3,2,-2,-2,0,777,412,6,0,0.4000239
1,30,120,105,1,3699,3699,2,3,2,2,-2,2,0,778,72,5,1,0.4000551
1,30,120,105,1,6399,6399,2,3,1,2,-2,2,0,779,398,6,1,0.4010923
1,30,120,105,1,14399,14399,2,1,3,2,-2,-2,0,780,544,5,1,0.4001426
1,30,120,105,1,2699,2699,2,1,3,2,-2,-2,0,781,332,6,1,0.5166686
1,30,120,105,1,11799,11799,2,2,1,-2,2,-2,1,782,775,5,1,0.3510932
1,30,120,105,1,7699,7699,2,3,1,2,-2,2,0,783,422,6,1,0.3666793
1,30,120,105,1,3155,3155,1,1,3,-2,2,-2,1,784,345,6,1,0.3501637
1,30,120,105,1,11099,11099,2,2,1,2,-2,-2,0,785,762,6,1,0.3683553
1,30,120,105,1,4155,4155,1,1,2,-2,2,2,1,786,649,6,1,0.3666532
1,30,120,105,1,6599,6599,2,3,2,-2,2,2,1,787,117,5,1,0.4333242
1,30,120,105,1,2899,2899,2,1,2,2,-2,2,0,788,620,6,1,0.4334612
1,30,120,105,1,16199,16199,2,3,2,2,-2,2,0,789,276,5,1,0.400141
1,30,120,105,1,11599,11599,2,1,3,-2,2,-2,1,790,485,5,1,0.3833822
1,30,120,105,1,3299,3299,2,1,2,2,-2,2,0,791,632,6,1,0.3501471
1,30,120,105,1,10555,10555,1,3,2,2,-2,2,0,792,180,6,1,0.3834179
1,30,120,105,1,6299,6299,2,2,1,2,-2,-2,0,793,678,5,1,0.3166511
1,30,120,105,1,10799,10799,2,3,1,-2,2,2,1,794,471,6,0,0.3333396
1,30,120,105,1,9499,9499,2,3,1,-2,2,2,1,795,447,5,1,0.4334713
1,30,120,105,1,2899,2899,2,1,3,2,-2,-2,0,796,336,6,1,0.3667155
1,30,120,105,1,799,799,2,1,3,2,-2,-2,0,797,296,5,1,0.3333743
1,30,120,105,1,6899,6899,2,2,1,2,-2,-2,0,798,690,5,1,0.3833573
1,30,120,105,1,799,799,2,1,3,-2,2,-2,1,799,297,5,1,0.4174846
1,30,120,105,1,13055,13055,1,3,2,-2,2,2,1,800,233,5,1,0.5000251
1,30,120,105,1,12199,12199,2,1,2,-2,2,2,1,801,781,5,1,0.366763
1,30,120,105,1,6299,6299,2,3,1,-2,2,2,1,802,395,5,1,0.4012688
1,30,120,105,1,5299,5299,2,3,2,2,-2,2,0,803,96,6,1,0.4834245
1,30,120,105,1,3699,3699,2,1,3,-2,2,-2,1,804,357,5,1,0.3834087
1,30,120,105,1,7199,7199,2,2,3,-2,2,-2,1,805,131,6,1,0.4500013
1,30,120,105,1,10699,10699,2,3,2,-2,2,2,1,806,185,6,1,0.3502211
1,30,120,105,1,7299,7299,2,1,2,-2,2,2,1,807,701,5,1,0.4500193
1,30,120,105,1,14499,14499,2,2,3,-2,2,-2,1,808,263,6,1,0.4166988
1,30,120,105,1,8699,8699,2,1,2,2,-2,2,0,809,720,5,1,0.4167809
1,30,120,105,1,11799,11799,2,2,3,-2,2,-2,1,810,207,5,1,0.4334271
1,30,120,105,1,3599,3599,2,3,1,-2,2,2,1,811,355,6,1,0.3834629
1,30,120,105,1,6599,6599,2,1,2,-2,2,2,1,812,685,5,1,0.4333581
1,30,120,105,1,3799,3799,2,3,1,2,-2,2,0,813,358,6,1,0.450034
1,30,120,105,1,7699,7699,2,2,1,2,-2,-2,0,814,706,6,1,0.4167058
1,30,120,105,1,11599,11599,2,3,2,-2,2,2,1,815,201,5,1,0.3668483
1,30,120,105,1,2799,2799,2,3,1,-2,2,2,1,816,335,5,1,0.4166356
1,30,120,105,1,9499,9499,2,3,1,2,-2,2,0,817,446,5,1,0.4001217
1,30,120,105,1,6599,6599,2,1,2,2,-2,2,0,818,684,5,1,0.4167853
1,30,120,105,1,3299,3299,2,1,3,-2,2,-2,1,819,349,6,1,0.4346392
1,30,120,105,1,399,399,2,3,2,-2,2,2,1,820,5,6,1,0.3834737
1,30,120,105,1,8699,8699,2,1,3,2,-2,-2,0,821,436,5,1,0.452743
1,30,120,105,1,6299,6299,2,2,1,-2,2,-2,1,822,679,5,1,0.3504512
1,30,120,105,1,6299,6299,2,3,1,2,-2,2,0,823,394,5,1,0.4001444
1,30,120,105,1,299,299,2,2,1,2,-2,-2,0,824,570,5,1,0.3833745
1,30,120,105,1,12299,12299,2,3,1,2,-2,2,0,825,498,6,1,0.4833694
1,30,120,105,1,9399,9399,2,1,2,2,-2,2,0,826,728,6,1,0.3500121
1,30,120,105,1,599,599,2,2,1,2,-2,-2,0,827,578,6,1,0.5833427
1,30,120,105,1,8799,8799,2,3,1,-2,2,2,1,828,439,6,1,0.417691
1,30,120,105,1,10355,10355,1,1,3,-2,2,-2,1,829,461,6,1,0.4000851
1,30,120,105,1,12099,12099,2,1,3,2,-2,-2,0,830,492,6,1,0.4001097
1,30,120,105,1,1855,1855,1,3,1,-2,2,2,1,831,315,5,1,0.4334056
1,30,120,105,1,6955,6955,1,3,2,2,-2,2,0,832,124,5,1,0.4166529
1,30,120,105,1,2155,2155,1,1,3,-2,2,-2,1,833,321,6,1,0.433379
1,30,120,105,1,1199,1199,2,1,3,2,-2,-2,0,834,304,5,1,0.3667775
1,30,120,105,1,10199,10199,2,2,3,-2,2,-2,1,835,175,6,1,0.4666608
1,30,120,105,1,2955,2955,1,2,3,-2,2,-2,1,836,55,5,1,0.383343
1,30,120,105,1,9599,9599,2,1,2,2,-2,2,0,837,732,6,1,0.433423
1,30,120,105,1,399,399,2,1,3,2,-2,-2,0,838,288,6,1,0.4001461
1,30,120,105,1,12699,12699,2,1,2,2,-2,2,0,839,792,5,1,0.4500281
1,30,120,105,1,499,499,2,1,3,-2,2,-2,1,840,293,5,1,0.3499681
1,30,120,105,1,14399,14399,2,3,2,2,-2,2,0,841,260,5,1,0.433427
1,30,120,105,1,15099,15099,2,2,3,2,-2,-2,0,842,266,6,1,0.4334202
1,30,120,105,1,6099,6099,2,3,1,-2,2,2,1,843,391,5,1,0.3833365
1,30,120,105,1,10999,10999,2,1,2,-2,2,2,1,844,761,5,1,0.3500364
1,30,120,105,1,4799,4799,2,3,1,2,-2,2,0,845,374,5,1,0.366797
1,30,120,105,1,10455,10455,1,2,1,-2,2,-2,1,846,747,5,1,0.3667813
1,30,120,105,1,10199,10199,2,2,3,2,-2,-2,0,847,174,6,1,0.416609
1,30,120,105,1,7999,7999,2,2,1,2,-2,-2,0,848,710,6,1,0.4339387
1,30,120,105,1,399,399,2,1,2,2,-2,2,0,849,572,6,1,0.4361305
1,30,120,105,1,12499,12499,2,3,1,2,-2,2,0,850,502,5,1,0.4001
1,30,120,105,1,3199,3199,2,3,1,2,-2,2,0,851,346,5,1,0.4002519
2,30,50,42,1,6999,6999,2,2,3,2,-2,-2,0,0,127,6,1,1.4166068
2,30,50,42,1,5599,5599,2,2,3,2,-2,-2,0,1,99,5,1,0.7000012
2,30,50,42,1,13499,13499,2,2,1,-2,2,-2,1,2,810,6,1,1.534756
2,30,50,42,1,1799,1799,2,3,2,2,-2,2,0,3,29,6,1,0.8334486
2,30,50,42,1,5299,5299,2,1,3,2,-2,-2,0,4,381,6,1,0.7001787
2,30,50,42,1,9255,9255,1,2,3,2,-2,-2,0,5,159,6,1,0.6000413
2,30,50,42,1,12699,12699,2,3,2,2,-2,2,0,6,225,5,1,0.6333667
2,30,50,42,1,10799,10799,2,2,1,-2,2,-2,1,7,754,5,1,0.6501366
2,30,50,42,1,15899,15899,2,2,1,-2,2,-2,1,8,842,6,1,0.6166403
2,30,50,42,1,11755,11755,1,3,2,-2,2,2,1,9,204,6,1,0.5001443
2,30,50,42,1,2155,2155,1,1,3,-2,2,-2,1,10,320,6,1,0.5667085
2,30,50,42,1,10999,10999,2,1,2,2,-2,2,0,11,761,5,1,0.9167673
2,30,50,42,1,11099,11099,2,2,3,2,-2,-2,0,12,195,6,1,0.716665
2,30,50,42,1,11699,11699,2,3,1,2,-2,2,0,13,487,6,1,0.8000938
2,30,50,42,1,13055,13055,1,3,2,-2,2,2,1,14,232,5,1,0.6334153
2,30,50,42,1,3399,3399,2,1,3,-2,2,-2,1,15,352,5,1,0.4334168
2,30,50,42,1,499,499,2,3,2,-2,2,2,1,16,8,5,1,0.6999981
2,30,50,42,1,4399,4399,2,2,1,-2,2,-2,1,17,654,5,1,0.468674
2,30,50,42,1,4099,4099,2,3,1,-2,2,2,1,18,362,6,1,0.4667944
2,30,50,42,1,4999,4999,2,2,3,-2,2,-2,1,19,94,5,1,0.4500218
2,30,50,42,1,15099,15099,2,3,1,2,-2,2,0,20,551,6,1,0.4333606
2,30,50,42,1,9599,9599,2,3,2,-2,2,2,1,21,164,6,1,0.4500449
2,30,50,42,1,10999,10999,2,1,2,-2,2,2,1,22,760,5,1,0.56678
2,30,50,42,1,8399,8399,2,1,2,2,-2,2,0,23,717,5,1,0.4667243
2,30,50,42,1,1199,1199,2,3,2,2,-2,2,0,24,21,5,1,0.4833727
2,30,50,42,1,299,299,2,2,1,2,-2,-2,0,25,571,5,1,0.466784
2,30,50,42,1,599,599,2,3,1,-2,2,2,1,26,294,6,1,0.4667856
2,30,50,42,1,10455,10455,1,2,1,-2,2,-2,1,27,746,5,1,0.7166904
2,30,50,42,1,13299,13299,2,1,3,-2,2,-2,1,28,524,5,1,0.599949
2,30,50,42,1,17355,17355,1,3,1,-2,2,2,1,29,566,5,1,0.4334557
2,30,50,42,1,10455,10455,1,2,1,2,-2,-2,0,30,747,5,1,0.4000451
2,30,50,42,1,12855,12855,1,1,2,-2,2,2,1,31,796,6,1,0.4833874
2,30,50,42,1,6599,6599,2,3,2,2,-2,2,0,32,117,5,1,0.7333734
2,30,50,42,1,4999,4999,2,2,3,2,-2,-2,0,33,95,5,1,0.4667207
2,30,50,42,1,10099,10099,2,2,1,-2,2,-2,1,34,738,5,1,0.3833756
2,30,50,42,1,7999,7999,2,2,1,2,-2,-2,0,35,711,6,1,0.5833643
2,30,50,42,1,2299,2299,2,1,3,-2,2,-2,1,36,324,5,1,0.4167964
2,30,50,42,1,16299,16299,2,2,1,-2,2,-2,1,37,846,6,1,0.5332834
2,30,50,42,1,1199,1199,2,1,3,-2,2,-2,1,38,304,5,1,0.4666933
2,30,50,42,1,11755,11755,1,3,2,2,-2,2,0,39,205,6,1,0.4673255
2,30,50,42,1,6999,6999,2,2,1,2,-2,-2,0,40,695,6,1,0.6333695
2,30,50,42,1,1099,1099,2,2,1,-2,2,-2,1,41,586,6,1,0.4333451
2,30,50,42,1,11699,11699,2,2,1,2,-2,-2,0,42,771,6,1,0.4833747
2,30,50,42,1,8199,8199,2,2,1,2,-2,-2,0,43,715,6,1,0.4334709
2,30,50,42,1,4599,4599,2,1,3,2,-2,-2,0,44,373,6,1,0.5001343
2,30,50,42,1,11399,11399,2,2,3,2,-2,-2,0,45,199,6,1,0.450038
2,30,50,42,1,9499,9499,2,3,1,-2,2,2,1,46,446,5,1,0.6500242
2,30,50,42,1,2655,2655,1,2,1,2,-2,-2,0,47,615,5,0,1.1500105
2,30,50,42,1,10699,10699,2,3,2,-2,2,2,1,48,184,6,1,0.9500718
2,30,50,42,1,14499,14499,2,2,1,2,-2,-2,0,49,831,6,1,0.4667949
2,30,50,42,1,15299,15299,2,3,2,2,-2,2,0,50,269,5,1,0.5667011
2,30,50,42,1,1255,1255,1,2,3,-2,2,-2,1,51,22,6,1,0.9832953
2,30,50,42,1,9899,9899,2,3,2,-2,2,2,1,52,168,6,1,0.6500198
2,30,50,42,1,5899,5899,2,1,2,2,-2,2,0,53,673,6,1,0.4667265
2,30,50,42,1,4155,4155,1,3,2,-2,2,2,1,54,80,6,1,0.3667999
2,30,50,42,1,12355,12355,1,3,2,-2,2,2,1,55,216,6,1,0.4666517
2,30,50,42,1,15799,15799,2,3,2,2,-2,2,0,56,273,5,1,0.6341914
2,30,50,42,1,2955,2955,1,3,1,-2,2,2,1,57,338,5,1,0.4167813
2,30,50,42,1,6299,6299,2,2,1,-2,2,-2,1,58,678,5,1,0.4834448
2,30,50,42,1,3799,3799,2,3,1,2,-2,2,0,59,359,6,1,0.4334581
2,30,50,42,1,16299,16299,2,2,1,2,-2,-2,0,60,847,6,1,0.6833387
2,30,50,42,1,14299,14299,2,1,2,2,-2,2,0,61,825,6,1,0.5833646
2,30,50,42,1,10155,10155,1,3,2,2,-2,2,0,62,173,5,1,0.5334322
2,30,50,42,1,2899,2899,2,1,3,2,-2,-2,0,63,337,6,1,0.7000177
2,30,50,42,1,799,799,2,1,2,2,-2,2,0,64,581,5,1,0.4833942
2,30,50,42,1,12099,12099,2,3,2,2,-2,2,0,65,209,6,1,0.9499782
2,30,50,42,1,1855,1855,1,3,1,-2,2,2,1,66,314,5,1,0.5333262
2,30,50,42,1,3355,3355,1,2,3,2,-2,-2,0,67,67,5,1,0.4501327
2,30,50,42,1,1899,1899,2,1,2,-2,2,2,1,68,600,5,1,0.600019
2,30,50,42,1,15799,15799,2,3,2,-2,2,2,1,69,272,5,1,1.1667818
2,30,50,42,1,13499,13499,2,2,3,-2,2,-2,1,70,242,6,1,0.5334137
2,30,50,42,1,799,799,2,3,2,-2,2,2,1,71,12,5,1,0.5001133
2,30,50,42,1,8099,8099,2,3,2,2,-2,2,0,72,145,5,1,0.6167507
2,30,50,42,1,8399,8399,2,3,2,-2,2,2,1,73,148,5,1,0.6666778
2,30,50,42,1,2155,2155,1,1,3,2,-2,-2,0,74,321,6,1,0.5166924
2,30,50,42,1,12155,12155,1,2,3,2,-2,-2,0,75,211,5,1,0.5834644
2,30,50,42,1,3599,3599,2,2,3,-2,2,-2,1,76,70,6,1,0.5169434
2,30,50,42,1,10599,10599,2,3,1,2,-2,2,0,77,467,5,1,0.6501156
2,30,50,42,1,9899,9899,2,1,2,2,-2,2,0,78,737,6,1,1.2667928
2,30,50,42,1,7099,7099,2,3,2,2,-2,2,0,79,129,5,1,0.7499915
2,30,50,42,1,399,399,2,1,3,-2,2,-2,1,80,288,6,1,2.1001046
2,30,50,42,1,6199,6199,2,1,3,2,-2,-2,0,81,393,6,1,0.4500012
2,30,50,42,1,11799,11799,2,3,1,2,-2,2,0,82,491,5,1,0.5834279
2,30,50,42,1,2299,2299,2,1,2,-2,2,2,1,83,608,5,1,0.7501381
2,30,50,42,1,4199,4199,2,2,1,2,-2,-2,0,84,651,5,1,0.5666846
2,30,50,42,1,17355,17355,1,2,1,-2,2,-2,1,85,850,5,1,0.5166368
2,30,50,42,1,4099,4099,2,2,1,-2,2,-2,1,86,646,6,1,0.6667867
2,30,50,42,1,7599,7599,2,1,2,2,-2,2,0,87,705,5,1,1.1167892
2,30,50,42,1,8099,8099,2,1,2,-2,2,2,1,88,712,5,1,0.6500463
2,30,50,42,1,455,455,1,3,1,2,-2,2,0,89,291,5,1,0.5667834
2,30,50,42,1,5899,5899,2,3,2,2,-2,2,0,90,105,6,1,0.5167787
2,30,50,42,1,5699,5699,2,3,2,-2,2,2,1,91,100,6,1,0.5000334
2,30,50,42,1,6955,6955,1,3,2,2,-2,2,0,92,125,5,1,0.5004511
2,30,50,42,1,2155,2155,1,1,2,-2,2,2,1,93,604,6,1,0.4667518
2,30,50,42,1,199,199,2,3,2,2,-2,2,0,94,1,6,1,0.5853891
2,30,50,42,1,10199,10199,2,2,3,-2,2,-2,1,95,174,5,0,0.4667507
2,30,50,42,1,1855,1855,1,2,3,-2,2,-2,1,96,30,5,1,0.5333668
2,30,50,42,1,12999,12999,2,2,3,-2,2,-2,1,97,230,5,1,0.4666861
2,30,50,42,1,9699,9699,2,3,1,2,-2,2,0,98,451,5,1,0.5667753
2,30,50,42,1,13255,13255,1,2,1,-2,2,-2,1,99,806,5,1,0.4167156
2,30,50,42,1,12199,12199,2,3,2,-2,2,2,1,100,212,6,0,0.450013
2,30,50,42,1,12299,12299,2,3,1,-2,2,2,1,101,498,6,1,0.4501265
2,30,50,42,1,2955,2955,1,2,3,2,-2,-2,0,102,55,5,1,0.6182223
2,30,50,42,1,3299,3299,2,1,2,2,-2,2,0,103,633,6,1,0.7000454
2,30,50,42,1,14699,14699,2,3,2,2,-2,2,0,104,265,5,1,0.6501487
2,30,50,42,1,15399,15399,2,2,3,-2,2,-2,1,105,270,6,1,0.8668136
2,30,50,42,1,7599,7599,2,1,3,2,-2,-2,0,106,421,5,1,0.6833009
2,30,50,42,1,15899,15899,2,2,3,2,-2,-2,0,107,275,6,1,0.5333213
2,30,50,42,1,4899,4899,2,3,2,-2,2,2,1,108,92,6,1,0.5833826
2,30,50,42,1,12155,12155,1,3,1,-2,2,2,1,109,494,5,1,0.6000544
2,30,50,42,1,7199,7199,2,2,1,-2,2,-2,1,110,698,6,1,0.6001348
2,30,50,42,1,14199,14199,2,2,1,-2,2,-2,1,111,822,5,1,0.7167803
2,30,50,42,1,12499,12499,2,3,1,-2,2,2,1,112,502,5,1,0.6500261
2,30,50,42,1,13499,13499,2,3,1,-2,2,2,1,113,526,6,1,0.5667992
2,30,50,42,1,8399,8399,2,3,2,2,-2,2,0,114,149,5,1,0.6843467
2,30,50,42,1,1399,1399,2,3,2,2,-2,2,0,115,25,6,1,0.9668023
2,30,50,42,1,2099,2099,2,2,1,2,-2,-2,0,116,603,6,1,1.2334852
2,30,50,42,1,3299,3299,2,3,2,2,-2,2,0,117,65,6,1,0.8000328
2,30,50,42,1,8799,8799,2,3,1,-2,2,2,1,118,438,6,1,0.4667216
2,30,50,42,1,3199,3199,2,2,1,2,-2,-2,0,119,631,5,1,0.4501373
2,30,50,42,1,14399,14399,2,1,2,2,-2,2,0,120,829,5,1,0.6501402
2,30,50,42,1,9699,9699,2,2,1,-2,2,-2,1,121,734,5,1,0.5166839
2,30,50,42,1,12199,12199,2,1,3,-2,2,-2,1,122,496,5,1,0.5000157
2,30,50,42,1,9899,9899,2,1,3,-2,2,-2,1,123,452,6,1,0.7000064
2,30,50,42,1,499,499,2,1,3,2,-2,-2,0,124,293,5,1,0.6347325
2,30,50,42,1,9199,9199,2,1,2,2,-2,2,0,125,725,5,1,0.4999656
2,30,50,42,1,599,599,2,2,1,2,-2,-2,0,126,579,6,1,0.6000574
2,30,50,42,1,13299,13299,2,1,3,2,-2,-2,0,127,525,5,1,0.5667624
2,30,50,42,1,9399,9399,2,1,3,-2,2,-2,1,128,444,6,1,0.6166974
2,30,50,42,1,10199,10199,2,2,3,2,-2,-2,0,129,175,6,1,0.8832927
2,30,50,42,1,12855,12855,1,1,3,-2,2,-2,1,130,512,6,1,0.5168092
2,30,50,42,1,6999,6999,2,2,1,-2,2,-2,1,131,694,6,1,0.616641
2,30,50,42,1,12555,12555,1,2,1,-2,2,2,1,132,788,5,1,0.5167881
2,30,50,42,1,9499,9499,2,2,1,2,-2,-2,0,133,731,5,1,0.7666113
2,30,50,42,1,9899,9899,2,3,2,2,-2,2,0,134,169,6,1,0.8167611
2,30,50,42,1,7399,7399,2,2,3,-2,2,-2,1,135,134,6,1,0.8333213
2,30,50,42,1,13855,13855,1,3,1,2,-2,2,0,136,531,6,1,0.566779
2,30,50,42,1,2099,2099,2,3,1,2,-2,2,0,137,319,6,1,0.6501411
2,30,50,42,1,1399,1399,2,1,2,-2,2,2,1,138,592,6,1,0.4000691
2,30,50,42,1,10455,10455,1,2,3,-2,2,-2,1,139,178,5,1,0.8333205
2,30,50,42,1,2155,2155,1,3,2,2,-2,2,0,140,37,6,1,0.5500425
2,30,50,42,1,11399,11399,2,3,1,2,-2,2,0,141,483,6,1,0.5013367
2,30,50,42,1,1255,1255,1,2,1,2,-2,-2,0,142,591,6,1,0.5001362
2,30,50,42,1,899,899,2,2,3,2,-2,-2,0,143,15,6,1,0.7667656
2,30,50,42,1,2099,2099,2,2,3,2,-2,-2,0,144,35,6,1,0.3167857
2,30,50,42,1,199,199,2,1,2,2,-2,2,0,145,569,6,1,0.4834176
2,30,50,42,1,6099,6099,2,2,1,2,-2,-2,0,146,675,5,1,0.5666502
2,30,50,42,1,15399,15399,2,3,1,-2,2,2,1,147,554,6,1,1.0333433
2,30,50,42,1,7999,7999,2,3,1,-2,2,2,1,148,426,6,1,0.5000489
2,30,50,42,1,3355,3355,1,2,1,-2,2,-2,1,149,634,5,1,0.5167793
2,30,50,42,1,3699,3699,2,1,3,-2,2,-2,1,150,356,5,1,0.5334338
2,30,50,42,1,13499,13499,2,2,3,2,-2,-2,0,151,243,6,1,0.5001844
2,30,50,42,1,3355,3355,1,2,1,2,-2,-2,0,152,635,5,1,0.5344038
2,30,50,42,1,17255,17255,1,3,2,-2,2,2,1,153,280,6,1,0.4667504
2,30,50,42,1,4199,4199,2,2,3,2,-2,-2,0,154,83,5,1,0.5500289
2,30,50,42,1,10899,10899,2,2,3,-2,2,-2,1,155,190,6,1,0.6001252
2,30,50,42,1,2099,2099,2,3,1,-2,2,2,1,156,318,6,1,0.466742
2,30,50,42,1,14699,14699,2,3,2,-2,2,2,1,157,264,5,1,0.6666303
2,30,50,42,1,15299,15299,2,1,3,2,-2,-2,0,158,553,5,1,0.4333581
2,30,50,42,1,6355,6355,1,3,2,-2,2,2,1,159,112,5,1,0.5501319
2,30,50,42,1,14499,14499,2,3,1,2,-2,2,0,160,547,6,1,0.5834043
2,30,50,42,1,12699,12699,2,1,2,-2,2,2,1,161,792,5,1,1.1167803
2,30,50,42,1,4299,4299,2,3,2,2,-2,2,0,162,85,6,1,0.6999521
2,30,50,42,1,199,199,2,3,2,-2,2,2,1,163,0,6,1,0.8667536
2,30,50,42,1,3155,3155,1,1,3,-2,2,-2,1,164,344,5,0,0.6833774
2,30,50,42,1,399,399,2,3,2,2,-2,2,0,165,5,6,1,0.5332879
2,30,50,42,1,12599,12599,2,2,1,2,-2,-2,0,166,791,6,1,0.516607
2,30,50,42,1,7999,7999,2,2,1,-2,2,-2,1,167,710,6,1,0.4833855
2,30,50,42,1,5799,5799,2,2,3,-2,2,-2,1,168,102,5,1,0.5500487
2,30,50,42,1,12555,12555,1,2,1,2,-2,2,0,169,789,5,1,0.6167093
2,30,50,42,1,1699,1699,2,3,1,2,-2,2,0,170,311,5,1,0.5672184
2,30,50,42,1,4155,4155,1,1,3,-2,2,-2,1,171,364,6,1,0.6667797
2,30,50,42,1,1699,1699,2,2,3,-2,2,-2,1,172,26,5,1,0.6333741
2,30,50,42,1,15099,15099,2,2,1,2,-2,-2,0,173,835,6,1,0.8166881
2,30,50,42,1,10199,10199,2,2,1,2,-2,-2,0,174,743,6,1,0.5166458
2,30,50,42,1,5299,5299,2,3,2,-2,2,2,1,175,96,6,1,0.9501221
2,30,50,42,1,8799,8799,2,3,1,2,-2,2,0,176,439,6,1,0.5667853
2,30,50,42,1,6599,6599,2,1,2,-2,2,2,1,177,684,5,1,0.6334181
2,30,50,42,1,599,599,2,3,1,2,-2,2,0,178,295,6,1,0.6000377
2,30,50,42,1,7099,7099,2,1,2,2,-2,2,0,179,697,5,1,0.7183163
2,30,50,42,1,3399,3399,2,3,2,2,-2,2,0,180,69,5,1,0.5666412
2,30,50,42,1,2999,2999,2,1,3,-2,2,-2,1,181,340,5,1,0.6667634
2,30,50,42,1,8699,8699,2,1,2,-2,2,2,1,182,720,5,1,0.8833956
2,30,50,42,1,6855,6855,1,1,2,2,-2,2,0,183,689,6,1,1.0333209
2,30,50,42,1,8499,8499,2,2,1,2,-2,-2,0,184,719,6,1,0.9167224
2,30,50,42,1,13855,13855,1,2,3,-2,2,-2,1,185,246,6,1,1.2000131
2,30,50,42,1,14299,14299,2,1,2,-2,2,2,1,186,824,6,1,0.6667644
2,30,50,42,1,15799,15799,2,1,3,-2,2,-2,1,187,556,5,1,0.5000526
2,30,50,42,1,2699,2699,2,3,2,-2,2,2,1,188,48,6,1,0.9501233
2,30,50,42,1,6899,6899,2,2,3,-2,2,-2,1,189,122,5,1,0.5500215
2,30,50,42,1,299,299,2,2,3,2,-2,-2,0,190,3,5,1,0.5334497
2,30,50,42,1,12299,12299,2,2,1,-2,2,-2,1,191,782,6,1,0.6000113
2,30,50,42,1,999,999,2,3,2,-2,2,2,1,192,16,5,1,0.6167134
2,30,50,42,1,12155,12155,1,2,1,2,-2,-2,0,193,779,5,1,0.8000449
2,30,50,42,1,10355,10355,1,1,2,-2,2,2,1,194,744,6,1,0.6501192
2,30,50,42,1,13255,13255,1,3,1,2,-2,2,0,195,523,5,1,0.4834413
2,30,50,42,1,1099,1099,2,2,1,2,-2,-2,0,196,587,6,1,0.5500274
2,30,50,42,1,2655,2655,1,2,1,-2,2,-2,1,197,614,6,1,0.4839484
2,30,50,42,1,13199,13199,2,1,2,2,-2,2,0,198,805,6,1,0.5833808
2,30,50,42,1,13899,13899,2,3,2,-2,2,2,1,199,248,6,1,0.8167926
2,30,50,42,1,12599,12599,2,3,1,2,-2,2,0,200,507,6,1,0.8834564
2,30,50,42,1,5599,5599,2,3,1,2,-2,2,0,201,383,5,1,0.5667781
2,30,50,42,1,1255,1255,1,2,3,2,-2,-2,0,202,23,6,1,0.5507747
2,30,50,42,1,10355,10355,1,3,2,-2,2,2,1,203,176,6,1,0.6167896
2,30,50,42,1,7599,7599,2,1,3,-2,2,-2,1,204,420,5,1,0.6166889
2,30,50,42,1,14499,14499,2,2,3,2,-2,-2,0,205,263,6,1,0.7500127
2,30,50,42,1,6855,6855,1,1,2,-2,2,2,1,206,688,6,1,0.5833311
2,30,50,42,1,9399,9399,2,3,2,2,-2,2,0,207,161,6,1,0.7833574
2,30,50,42,1,11755,11755,1,1,2,-2,2,2,1,208,772,6,1,0.4168167
2,30,50,42,1,7399,7399,2,2,3,2,-2,-2,0,209,135,6,1,1.0668774
2,30,50,42,1,5599,5599,2,2,1,2,-2,-2,0,210,667,5,1,0.6667477
2,30,50,42,1,10599,10599,2,2,1,2,-2,-2,0,211,751,5,1,0.633404
2,30,50,42,1,8699,8699,2,1,3,2,-2,-2,0,212,437,5,1,0.5000977
2,30,50,42,1,7699,7699,2,2,3,-2,2,-2,1,213,138,6,1,0.7847772
2,30,50,42,1,5599,5599,2,2,3,-2,2,-2,1,214,98,5,1,0.6674921
2,30,50,42,1,4899,4899,2,1,3,-2,2,-2,1,215,376,6,1,1.116629
2,30,50,42,1,14055,14055,1,3,1,2,-2,2,0,216,535,5,1,0.4833454
2,30,50,42,1,7599,7599,2,3,2,-2,2,2,1,217,136,5,1,0.4666456
2,30,50,42,1,14299,14299,2,1,3,2,-2,-2,0,218,541,6,1,0.4667577
2,30,50,42,1,10555,10555,1,1,2,2,-2,2,0,219,749,6,1,0.566777
2,30,50,42,1,13155,13155,1,3,1,-2,2,2,1,220,518,6,1,0.5166709
2,30,50,42,1,11755,11755,1,1,3,2,-2,-2,0,221,489,6,1,0.5333443
2,30,50,42,1,7699,7699,2,2,1,2,-2,-2,0,222,707,6,1,0.4000317
2,30,50,42,1,3699,3699,2,1,2,-2,2,2,1,223,640,5,1,0.5333964
2,30,50,42,1,15799,15799,2,1,2,2,-2,2,0,224,841,5,1,0.4166445
2,30,50,42,1,10855,10855,1,1,2,-2,2,2,1,225,756,5,1,0.4333872
2,30,50,42,1,3355,3355,1,3,1,-2,2,2,1,226,350,5,1,0.3843097
2,30,50,42,1,12999,12999,2,3,1,-2,2,2,1,227,514,5,1,0.4166542
2,30,50,42,1,13055,13055,1,3,2,2,-2,2,0,228,233,5,1,0.6334664
2,30,50,42,1,5799,5799,2,2,1,-2,2,-2,1,229,670,5,1,0.4500657
2,30,50,42,1,5799,5799,2,2,3,2,-2,-2,0,230,103,5,1,0.5167079
2,30,50,42,1,3099,3099,2,2,3,-2,2,-2,1,231,58,6,1,1.0166911
2,30,50,42,1,3599,3599,2,2,3,2,-2,-2,0,232,71,6,1,0.5334117
2,30,50,42,1,399,399,2,3,2,-2,2,2,1,233,4,6,1,0.6166877
2,30,50,42,1,14499,14499,2,2,3,-2,2,-2,1,234,262,6,1,0.5833619
2,30,50,42,1,15299,15299,2,1,2,-2,2,2,1,235,836,5,1,0.5834354
2,30,50,42,1,5899,5899,2,1,3,-2,2,-2,1,236,388,6,1,0.4500235
2,30,50,42,1,5699,5699,2,3,2,2,-2,2,0,237,101,6,1,0.5333648
2,30,50,42,1,16199,16199,2,1,3,2,-2,-2,0,238,561,5,1,0.4500256
2,30,50,42,1,5899,5899,2,1,3,2,-2,-2,0,239,389,6,1,0.7833339
2,30,50,42,1,16199,16199,2,3,2,2,-2,2,0,240,277,5,1,0.5000075
2,30,50,42,1,2699,2699,2,1,3,2,-2,-2,0,241,333,6,1,0.5333911
2,30,50,42,1,4999,4999,2,3,1,-2,2,2,1,242,378,5,1,0.5501357
2,30,50,42,1,14055,14055,1,2,3,2,-2,-2,0,243,251,6,0,0.3667086
2,30,50,42,1,3699,3699,2,1,3,2,-2,-2,0,244,357,5,1,0.4500469
2,30,50,42,1,6855,6855,1,3,2,2,-2,2,0,245,121,6,1,0.8166726
2,30,50,42,1,7399,7399,2,3,1,2,-2,2,0,246,419,6,1,0.5667132
2,30,50,42,1,10855,10855,1,1,2,2,-2,2,0,247,757,5,1,0.5667898
2,30,50,42,1,13299,13299,2,3,2,-2,2,2,1,248,240,5,1,0.4668251
2,30,50,42,1,14155,14155,1,1,2,2,-2,2,0,249,821,6,1,0.4679254
2,30,50,42,1,12155,12155,1,2,1,-2,2,-2,1,250,778,5,1,0.4833805
2,30,50,42,1,4199,4199,2,2,3,-2,2,-2,1,251,82,5,1,0.4833604
2,30,50,42,1,6355,6355,1,1,2,-2,2,2,1,252,680,6,0,0.6667932
2,30,50,42,1,13155,13155,1,2,3,-2,2,-2,1,253,234,6,1,0.8667937
2,30,50,42,1,3299,3299,2,1,3,-2,2,-2,1,254,348,6,1,1.1685305
2,30,50,42,1,2599,2599,2,3,2,-2,2,2,1,255,44,5,1,0.5501148
2,30,50,42,1,8499,8499,2,3,1,-2,2,2,1,256,434,6,1,0.6500098
2,30,50,42,1,499,499,2,1,2,-2,2,2,1,257,576,5,1,0.5500761
2,30,50,42,1,6299,6299,2,3,1,-2,2,2,1,258,394,5,1,0.5501259
2,30,50,42,1,14299,14299,2,3,2,2,-2,2,0,259,257,5,0,0.5334619
2,30,50,42,1,7799,7799,2,1,2,2,-2,2,0,260,709,5,1,0.5501228
2,30,50,42,1,399,399,2,1,2,-2,2,2,1,261,572,6,1,0.5684697
2,30,50,42,1,11399,11399,2,2,3,-2,2,-2,1,262,198,6,1,0.8166812
2,30,50,42,1,6355,6355,1,1,2,2,-2,2,0,263,681,5,1,0.6166498
2,30,50,42,1,11699,11699,2,2,3,2,-2,-2,0,264,203,6,1,0.6501067
2,30,50,42,1,5899,5899,2,1,2,-2,2,2,1,265,672,6,1,0.516788
2,30,50,42,1,10799,10799,2,2,1,2,-2,-2,0,266,755,5,1,0.6349633
2,30,50,42,1,14199,14199,2,2,3,2,-2,-2,0,267,255,5,1,0.4677296
2,30,50,42,1,6199,6199,2,3,2,2,-2,2,0,268,109,6,1,0.4838608
2,30,50,42,1,10999,10999,2,3,2,2,-2,2,0,269,193,5,1,0.6167858
2,30,50,42,1,8499,8499,2,2,1,-2,2,-2,1,270,718,6,1,0.5000992
2,30,50,42,1,12099,12099,2,1,2,2,-2,2,0,271,777,6,1,1.0833665
2,30,50,42,1,17355,17355,1,2,1,2,-2,-2,0,272,851,5,1,0.6501394
2,30,50,42,1,12299,12299,2,2,1,2,-2,-2,0,273,783,6,1,0.6500689
2,30,50,42,1,8099,8099,2,1,3,-2,2,-2,1,274,428,5,1,1.0000077
2,30,50,42,1,2299,2299,2,3,2,-2,2,2,1,275,40,5,1,0.7833608
2,30,50,42,1,299,299,2,2,3,-2,2,-2,1,276,2,5,1,0.8999956
2,30,50,42,1,6699,6699,2,3,1,2,-2,2,0,277,403,6,1,0.6182668
2,30,50,42,1,12299,12299,2,2,3,-2,2,-2,1,278,214,6,1,0.6510606
2,30,50,42,1,4999,4999,2,2,1,2,-2,-2,0,279,663,5,1,0.7666759
2,30,50,42,1,10155,10155,1,1,2,-2,2,2,1,280,740,5,1,0.5666779
2,30,50,42,1,8399,8399,2,1,3,2,-2,-2,0,281,433,5,1,0.4346841
2,30,50,42,1,2255,2255,1,2,3,-2,2,-2,1,282,38,5,1,1.6501122
2,30,50,42,1,1255,1255,1,2,1,-2,2,-2,1,283,590,6,1,0.6334737
2,30,50,42,1,12099,12099,2,1,2,-2,2,2,1,284,776,6,1,0.5334337
2,30,50,42,1,4155,4155,1,3,2,2,-2,2,0,285,81,6,1,0.4167896
2,30,50,42,1,2599,2599,2,3,2,2,-2,2,0,286,45,5,1,0.5500164
2,30,50,42,1,6399,6399,2,3,1,-2,2,2,1,287,398,6,1,0.8167729
2,30,50,42,1,2999,2999,2,3,2,-2,2,2,1,288,56,5,1,0.650119
2,30,50,42,1,4399,4399,2,2,3,2,-2,-2,0,289,87,5,1,0.5501317
2,30,50,42,1,14055,14055,1,2,3,-2,2,-2,1,290,250,5,1,0.516783
2,30,50,42,1,6099,6099,2,3,1,-2,2,2,1,291,390,5,1,0.6017746
2,30,50,42,1,2999,2999,2,1,2,-2,2,2,1,292,624,5,1,0.5345377
2,30,50,42,1,2799,2799,2,2,1,-2,2,-2,1,293,618,5,1,0.7166631
2,30,50,42,1,11199,11199,2,1,2,2,-2,2,0,294,765,5,1,0.6000166
2,30,50,42,1,6855,6855,1,3,2,-2,2,2,1,295,120,6,1,0.5166769
2,30,50,42,1,9499,9499,2,2,3,-2,2,-2,1,296,162,5,1,0.5500058
2,30,50,42,1,4299,4299,2,1,3,-2,2,-2,1,297,368,6,1,0.7500407
2,30,50,42,1,14499,14499,2,2,1,-2,2,-2,1,298,830,6,1,0.5667793
2,30,50,42,1,15099,15099,2,2,3,2,-2,-2,0,299,267,6,1,0.4005775
2,30,50,42,1,7799,7799,2,3,2,2,-2,2,0,300,141,5,1,0.4833814
2,30,50,42,1,5799,5799,2,2,1,2,-2,-2,0,301,671,5,1,0.5834331
2,30,50,42,1,12599,12599,2,2,3,-2,2,-2,1,302,222,6,1,1.0667347
2,30,50,42,1,1855,1855,1,2,1,-2,2,-2,1,303,598,5,1,0.5000289
2,30,50,42,1,10899,10899,2,3,1,2,-2,2,0,304,475,6,1,0.633344
2,30,50,42,1,7099,7099,2,1,2,-2,2,2,1,305,696,5,1,0.5500445
2,30,50,42,1,7799,7799,2,1,2,-2,2,2,1,306,708,5,1,0.5333731
2,30,50,42,1,12699,12699,2,3,2,-2,2,2,1,307,224,5,1,0.4500458
2,30,50,42,1,10555,10555,1,3,2,2,-2,2,0,308,181,5,0,0.4167339
2,30,50,42,1,10155,10155,1,1,3,2,-2,-2,0,309,457,5,1,0.5167992
2,30,50,42,1,5299,5299,2,1,2,-2,2,2,1,310,664,6,1,0.4001424
2,30,50,42,1,6599,6599,2,1,2,2,-2,2,0,311,685,5,1,0.5333661
2,30,50,42,1,12199,12199,2,1,2,-2,2,2,1,312,780,5,1,0.449949
2,30,50,42,1,10199,10199,2,2,1,-2,2,-2,1,313,742,6,1,0.8000485
2,30,50,42,1,4999,4999,2,3,1,2,-2,2,0,314,379,5,1,0.650003
2,30,50,42,1,10855,10855,1,1,3,2,-2,-2,0,315,473,5,1,0.5000197
2,30,50,42,1,13199,13199,2,1,2,-2,2,2,1,316,804,6,1,0.4500224
2,30,50,42,1,14699,14699,2,1,3,2,-2,-2,0,317,549,5,1,0.5333512
2,30,50,42,1,15299,15299,2,1,3,-2,2,-2,1,318,552,5,1,0.4667229
2,30,50,42,1,8699,8699,2,3,2,-2,2,2,1,319,152,5,1,0.4668044
2,30,50,42,1,3899,3899,2,3,2,-2,2,2,1,320,76,5,1,0.4667386
2,30,50,42,1,2599,2599,2,1,3,-2,2,-2,1,321,328,5,1,0.5168294
2,30,50,42,1,2299,2299,2,1,3,2,-2,-2,0,322,325,5,1,0.4501408
2,30,50,42,1,13699,13699,2,3,2,2,-2,2,0,323,245,5,1,0.4334535
2,30,50,42,1,12599,12599,2,3,1,-2,2,2,1,324,506,6,1,0.7333941
2,30,50,42,1,15299,15299,2,3,2,-2,2,2,1,325,268,5,1,0.5500336
2,30,50,42,1,10999,10999,2,1,3,-2,2,-2,1,326,476,5,1,0.6002444
2,30,50,42,1,3799,3799,2,2,3,-2,2,-2,1,327,74,6,1,0.5834099
2,30,50,42,1,6999,6999,2,2,3,-2,2,-2,1,328,126,6,1,0.500004
2,30,50,42,1,2255,2255,1,3,1,-2,2,2,1,329,322,5,1,0.55007
2,30,50,42,1,14399,14399,2,1,3,2,-2,-2,0,330,545,5,1,0.5334824
2,30,50,42,1,14199,14199,2,2,3,-2,2,-2,1,331,254,5,1,0.4834142
2,30,50,42,1,8099,8099,2,3,2,-2,2,2,1,332,144,5,1,0.5834611
2,30,50,42,1,8199,8199,2,2,3,-2,2,-2,1,333,146,6,1,0.8166341
2,30,50,42,1,5299,5299,2,1,2,2,-2,2,0,334,665,6,1,1.5167407
2,30,50,42,1,2299,2299,2,3,2,2,-2,2,0,335,41,5,1,0.5833748
2,30,50,42,1,2599,2599,2,1,2,-2,2,2,1,336,612,5,1,0.533328
2,30,50,42,1,3299,3299,2,3,2,-2,2,2,1,337,64,6,1,0.5333698
2,30,50,42,1,11099,11099,2,3,1,2,-2,2,0,338,479,6,1,0.633383
2,30,50,42,1,2799,2799,2,3,1,-2,2,2,1,339,334,5,1,0.5667815
2,30,50,42,1,12555,12555,1,3,1,-2,2,-2,1,340,504,5,1,0.483262
2,30,50,42,1,7199,7199,2,2,1,2,-2,-2,0,341,699,6,1,0.5666174
2,30,50,42,1,14399,14399,2,3,2,-2,2,2,1,342,260,5,1,0.550024
2,30,50,42,1,2099,2099,2,2,3,-2,2,-2,1,343,34,6,1,0.8001163
2,30,50,42,1,7199,7199,2,3,1,-2,2,2,1,344,414,6,1,0.7000208
2,30,50,42,1,7199,7199,2,3,1,2,-2,2,0,345,415,6,1,0.7166983
2,30,50,42,1,4399,4399,2,3,1,2,-2,2,0,346,371,6,0,0.4167744
2,30,50,42,1,1199,1199,2,3,2,-2,2,2,1,347,20,5,1,0.500023
2,30,50,42,1,11399,11399,2,2,1,2,-2,-2,0,348,767,6,1,0.616709
2,30,50,42,1,7399,7399,2,3,1,-2,2,2,1,349,418,6,1,0.5346904
2,30,50,42,1,9199,9199,2,3,2,-2,2,2,1,350,156,5,1,0.5167059
2,30,50,42,1,4799,4799,2,2,1,-2,2,-2,1,351,658,5,1,0.5167891
2,30,50,42,1,6355,6355,1,1,3,-2,2,-2,1,352,396,5,1,1.1666634
2,30,50,42,1,9599,9599,2,1,2,2,-2,2,0,353,733,6,1,0.4666924
2,30,50,42,1,7999,7999,2,2,3,2,-2,-2,0,354,143,6,1,0.5666785
2,30,50,42,1,6899,6899,2,2,3,2,-2,-2,0,355,123,5,1,0.5678589
2,30,50,42,1,7599,7599,2,1,2,-2,2,2,1,356,704,5,1,0.5174311
2,30,50,42,1,16299,16299,2,2,3,2,-2,-2,0,357,279,6,1,0.5334124
2,30,50,42,1,899,899,2,3,1,2,-2,2,0,358,299,6,1,0.533417
2,30,50,42,1,10799,10799,2,2,3,2,-2,-2,0,359,187,5,1,0.5834341
2,30,50,42,1,6899,6899,2,3,1,-2,2,2,1,360,406,5,1,0.5167816
2,30,50,42,1,1099,1099,2,2,3,-2,2,-2,1,361,18,6,1,0.5167686
2,30,50,42,1,13499,13499,2,2,1,2,-2,-2,0,362,811,6,1,0.6833964
2,30,50,42,1,2255,2255,1,2,1,-2,2,-2,1,363,606,5,1,0.8334093
2,30,50,42,1,2299,2299,2,1,2,2,-2,2,0,364,609,5,1,0.8334115
2,30,50,42,1,15099,15099,2,3,1,-2,2,2,1,365,550,6,1,0.6834323
2,30,50,42,1,999,999,2,1,2,2,-2,2,0,366,585,5,1,0.8167121
2,30,50,42,1,12355,12355,1,1,2,2,-2,2,0,367,785,6,1,0.5341041
2,30,50,42,1,3099,3099,2,2,1,-2,2,-2,1,368,626,6,1,0.6001296
2,30,50,42,1,12355,12355,1,1,3,-2,2,-2,1,369,500,6,1,0.6832831
2,30,50,42,1,6955,6955,1,1,3,-2,2,-2,1,370,408,5,1,0.6333274
2,30,50,42,1,3399,3399,2,1,2,2,-2,2,0,371,637,5,1,0.6333591
2,30,50,42,1,12699,12699,2,1,2,2,-2,2,0,372,793,5,1,0.4345219
2,30,50,42,1,13299,13299,2,1,2,-2,2,2,1,373,808,5,1,0.4666192
2,30,50,42,1,13299,13299,2,3,2,2,-2,2,0,374,241,5,1,0.6333811
2,30,50,42,1,5899,5899,2,3,2,-2,2,2,1,375,104,6,1,0.6500129
2,30,50,42,1,8799,8799,2,2,1,2,-2,-2,0,376,723,6,1,0.5666898
2,30,50,42,1,3399,3399,2,3,2,-2,2,2,1,377,68,5,1,0.4833744
2,30,50,42,1,15899,15899,2,2,3,-2,2,-2,1,378,274,6,1,0.5501024
2,30,50,42,1,1255,1255,1,3,1,2,-2,2,0,379,307,6,1,0.6500058
2,30,50,42,1,1799,1799,2,1,2,-2,2,2,1,380,596,6,1,0.4502191
2,30,50,42,1,13855,13855,1,2,1,-2,2,-2,1,381,814,6,1,0.6334306
2,30,50,42,1,3699,3699,2,3,2,2,-2,2,0,382,73,5,1,0.550063
2,30,50,42,1,4899,4899,2,1,2,-2,2,2,1,383,660,6,1,0.600125
2,30,50,42,1,4899,4899,2,1,2,2,-2,2,0,384,661,6,1,0.5167825
2,30,50,42,1,1099,1099,2,3,1,2,-2,2,0,385,303,6,1,0.4000085
2,30,50,42,1,7699,7699,2,2,3,2,-2,-2,0,386,139,6,1,0.5333648
2,30,50,42,1,12199,12199,2,1,3,2,-2,-2,0,387,497,5,1,0.6500208
2,30,50,42,1,2099,2099,2,2,1,-2,2,-2,1,388,602,6,1,0.6334634
2,30,50,42,1,3599,3599,2,3,1,-2,2,2,1,389,354,6,1,0.6833525
2,30,50,42,1,16299,16299,2,3,1,-2,2,2,1,390,562,6,1,0.600106
2,30,50,42,1,13899,13899,2,3,2,2,-2,2,0,391,249,6,1,0.3833668
2,30,50,42,1,3155,3155,1,3,2,-2,2,2,1,392,60,6,1,0.5500096
2,30,50,42,1,6399,6399,2,2,3,2,-2,-2,0,393,115,6,1,0.4166635
2,30,50,42,1,12799,12799,2,3,1,-2,2,2,1,394,510,6,1,0.433373
2,30,50,42,1,13899,13899,2,1,2,2,-2,2,0,395,817,6,1,0.3333765
2,30,50,42,1,9599,9599,2,1,2,-2,2,2,1,396,732,6,1,0.3014314
2,30,50,42,1,6599,6599,2,1,3,-2,2,-2,1,397,400,6,0,0.2667902
2,30,50,42,1,9199,9199,2,1,3,-2,2,-2,1,398,440,5,1,0.7167683
2,30,50,42,1,12155,12155,1,2,3,-2,2,-2,1,399,210,5,1,0.4001182
2,30,50,42,1,8399,8399,2,1,3,-2,2,-2,1,400,432,5,1,0.4667009
2,30,50,42,1,3199,3199,2,2,1,-2,2,-2,1,401,630,5,1,0.3500269
2,30,50,42,1,11199,11199,2,1,2,-2,2,2,1,402,764,5,1,0.6667717
2,30,50,42,1,12799,12799,2,2,1,2,-2,-2,0,403,795,5,0,0.2842272
2,30,50,42,1,12355,12355,1,1,3,2,-2,-2,0,404,501,6,1,0.4667814
2,30,50,42,1,2655,2655,1,2,3,2,-2,-2,0,405,47,6,1,0.5334191
2,30,50,42,1,9399,9399,2,1,2,-2,2,2,1,406,728,6,1,0.5000169
2,30,50,42,1,17355,17355,1,2,3,-2,2,-2,1,407,282,5,1,0.700015
2,30,50,42,1,11599,11599,2,1,3,-2,2,-2,1,408,484,5,1,0.6500334
2,30,50,42,1,11199,11199,2,3,2,2,-2,2,0,409,197,5,1,0.6833731
2,30,50,42,1,7699,7699,2,3,1,-2,2,2,1,410,422,6,1,0.5333736
2,30,50,42,1,5799,5799,2,3,1,-2,2,2,1,411,386,5,1,0.6665905
2,30,50,42,1,455,455,1,2,1,2,-2,-2,0,412,575,5,1,1.733318
2,30,50,42,1,4299,4299,2,1,2,2,-2,2,0,413,653,6,1,0.734782
2,30,50,42,1,10555,10555,1,1,3,2,-2,-2,0,414,465,6,1,0.6166719
2,30,50,42,1,16199,16199,2,1,2,-2,2,2,1,415,844,5,1,0.5167138
2,30,50,42,1,16199,16199,2,3,2,-2,2,2,1,416,276,5,1,0.4668049
2,30,50,42,1,10555,10555,1,3,2,-2,2,2,1,417,180,6,1,0.5166296
2,30,50,42,1,11599,11599,2,3,2,2,-2,2,0,418,201,5,1,0.5166306
2,30,50,42,1,1399,1399,2,1,2,2,-2,2,0,419,593,6,1,0.7000194
2,30,50,42,1,12799,12799,2,2,3,-2,2,-2,1,420,226,6,1,1.1845957
2,30,50,42,1,6355,6355,1,3,2,2,-2,2,0,421,113,5,1,1.6333535
2,30,50,42,1,17355,17355,1,2,3,2,-2,-2,0,422,283,5,1,0.7834286
2,30,50,42,1,9255,9255,1,2,3,-2,2,-2,1,423,158,6,1,1.0833939
2,30,50,42,1,7799,7799,2,1,3,-2,2,-2,1,424,424,5,1,1.2333906
2,30,50,42,1,13855,13855,1,2,1,2,-2,-2,0,425,815,6,1,0.6500334
2,30,50,42,1,16199,16199,2,1,3,-2,2,-2,1,426,560,5,1,0.5333639
2,30,50,42,1,9599,9599,2,1,3,2,-2,-2,0,427,449,6,1,0.5500502
2,30,50,42,1,4099,4099,2,2,1,2,-2,-2,0,428,647,6,1,0.4834558
2,30,50,42,1,11599,11599,2,3,2,-2,2,2,1,429,200,5,1,0.5167746
2,30,50,42,1,8499,8499,2,3,1,2,-2,2,0,430,435,6,1,0.5333233
2,30,50,42,1,14155,14155,1,3,2,-2,2,2,1,431,252,6,1,0.4834134
2,30,50,42,1,2799,2799,2,2,3,2,-2,-2,0,432,51,5,1,0.5333826
2,30,50,42,1,3799,3799,2,2,3,2,-2,-2,0,433,75,6,1,0.4834307
2,30,50,42,1,4099,4099,2,2,3,-2,2,-2,1,434,78,6,1,0.533439
2,30,50,42,1,1899,1899,2,1,3,2,-2,-2,0,435,317,5,1,0.5833642
2,30,50,42,1,6199,6199,2,3,2,-2,2,2,1,436,108,6,1,0.8667405
2,30,50,42,1,3699,3699,2,3,2,-2,2,2,1,437,72,5,1,0.5167712
2,30,50,42,1,12555,12555,1,3,1,2,-2,-2,0,438,505,5,1,0.4668785
2,30,50,42,1,6855,6855,1,1,3,-2,2,-2,1,439,404,5,0,0.4333647
2,30,50,42,1,11099,11099,2,3,1,-2,2,2,1,440,478,6,1,0.5333387
2,30,50,42,1,11799,11799,2,2,1,-2,2,-2,1,441,774,5,1,0.5167852
2,30,50,42,1,3799,3799,2,3,1,-2,2,2,1,442,358,6,1,0.7167308
2,30,50,42,1,10699,10699,2,1,2,-2,2,2,1,443,752,6,1,0.6000337
2,30,50,42,1,4155,4155,1,1,2,-2,2,2,1,444,648,6,1,0.6666063
2,30,50,42,1,12999,12999,2,2,3,2,-2,-2,0,445,231,5,1,0.6333196
2,30,50,42,1,14355,14355,1,2,1,-2,2,-2,1,446,826,5,1,0.5001162
2,30,50,42,1,7299,7299,2,1,2,-2,2,2,1,447,700,5,1,0.5667024
2,30,50,42,1,499,499,2,1,3,-2,2,-2,1,448,292,5,1,0.4001304
2,30,50,42,1,13199,13199,2,3,2,2,-2,2,0,449,237,6,1,0.516687
2,30,50,42,1,3599,3599,2,2,1,2,-2,-2,0,450,639,6,1,0.5500643
2,30,50,42,1,799,799,2,1,3,2,-2,-2,0,451,297,5,1,0.5167699
2,30,50,42,1,1899,1899,2,3,2,-2,2,2,1,452,32,5,1,0.5000674
2,30,50,42,1,15099,15099,2,2,1,-2,2,-2,1,453,834,6,1,0.5667638
2,30,50,42,1,6299,6299,2,2,1,2,-2,-2,0,454,679,5,1,0.6348979
2,30,50,42,1,10555,10555,1,1,3,-2,2,-2,1,455,464,6,1,0.567587
2,30,50,42,1,1899,1899,2,1,2,2,-2,2,0,456,601,5,1,0.6834245
2,30,50,42,1,6699,6699,2,2,3,-2,2,-2,1,457,118,6,1,0.7334106
2,30,50,42,1,11699,11699,2,3,1,-2,2,2,1,458,486,6,1,1.300088
2,30,50,42,1,9399,9399,2,1,2,2,-2,2,0,459,729,6,1,0.616661
2,30,50,42,1,7299,7299,2,1,2,2,-2,2,0,460,701,5,1,0.5666896
2,30,50,42,1,12855,12855,1,3,2,-2,2,2,1,461,228,6,1,0.8338958
2,30,50,42,1,4155,4155,1,1,2,2,-2,2,0,462,649,6,1,0.5666819
2,30,50,42,1,12499,12499,2,3,1,2,-2,2,0,463,503,5,1,0.6167851
2,30,50,42,1,299,299,2,3,1,-2,2,2,1,464,286,5,1,0.4500385
2,30,50,42,1,13699,13699,2,1,3,-2,2,-2,1,465,528,5,1,0.4834141
2,30,50,42,1,899,899,2,2,3,-2,2,-2,1,466,14,6,1,0.7833336
2,30,50,42,1,3899,3899,2,1,3,2,-2,-2,0,467,361,5,1,0.5170689
2,30,50,42,1,15899,15899,2,3,1,2,-2,2,0,468,559,6,1,0.6166405
2,30,50,42,1,299,299,2,3,1,2,-2,2,0,469,287,5,1,0.5833753
2,30,50,42,1,10099,10099,2,2,3,2,-2,-2,0,470,171,5,1,0.4501308
2,30,50,42,1,5799,5799,2,3,1,2,-2,2,0,471,387,5,1,0.5166301
2,30,50,42,1,3155,3155,1,1,2,2,-2,2,0,472,629,5,0,0.4000407
2,30,50,42,1,2399,2399,2,2,1,-2,2,-2,1,473,610,6,1,0.5333972
2,30,50,42,1,2399,2399,2,3,1,-2,2,2,1,474,326,6,1,0.68338
2,30,50,42,1,3899,3899,2,1,2,2,-2,2,0,475,645,5,1,0.5334031
2,30,50,42,1,12499,12499,2,2,3,-2,2,-2,1,476,218,5,1,0.6000368
2,30,50,42,1,14699,14699,2,1,3,-2,2,-2,1,477,548,5,1,0.6167185
2,30,50,42,1,5299,5299,2,1,3,-2,2,-2,1,478,380,6,1,0.5167804
2,30,50,42,1,1699,1699,2,2,3,2,-2,-2,0,479,27,5,1,0.5833514
2,30,50,42,1,399,399,2,1,2,2,-2,2,0,480,573,6,1,0.4501505
2,30,50,42,1,11199,11199,2,3,2,-2,2,2,1,481,196,5,1,0.6167849
2,30,50,42,1,10099,10099,2,3,1,-2,2,2,1,482,454,5,1,0.4666965
2,30,50,42,1,6899,6899,2,2,1,2,-2,-2,0,483,691,5,1,0.4833897
2,30,50,42,1,8399,8399,2,1,2,-2,2,2,1,484,716,5,1,0.4666899
2,30,50,42,1,999,999,2,3,2,2,-2,2,0,485,17,5,1,0.4003798
2,30,50,42,1,10355,10355,1,3,2,2,-2,2,0,486,177,6,1,0.4666791
2,30,50,42,1,3899,3899,2,3,2,2,-2,2,0,487,77,5,1,0.616777
2,30,50,42,1,1399,1399,2,1,3,2,-2,-2,0,488,309,6,1,0.63335
2,30,50,42,1,12599,12599,2,2,3,2,-2,-2,0,489,223,6,1,0.8500129
2,30,50,42,1,10355,10355,1,1,2,2,-2,2,0,490,745,6,1,0.5333542
2,30,50,42,1,4399,4399,2,3,1,-2,2,2,1,491,370,5,1,0.6001115
2,30,50,42,1,15899,15899,2,2,1,2,-2,-2,0,492,843,6,1,0.5175351
2,30,50,42,1,3699,3699,2,1,2,2,-2,2,0,493,641,5,1,0.4836633
2,30,50,42,1,7099,7099,2,3,2,-2,2,2,1,494,128,5,1,0.4834127
2,30,50,42,1,2699,2699,2,1,2,-2,2,2,1,495,616,6,1,1.0167676
2,30,50,42,1,12199,12199,2,1,2,2,-2,2,0,496,781,5,1,0.5167114
2,30,50,42,1,4999,4999,2,2,1,-2,2,-2,1,497,662,5,1,0.4501392
2,30,50,42,1,2399,2399,2,2,3,2,-2,-2,0,498,43,6,1,0.5166685
2,30,50,42,1,13155,13155,1,2,1,2,-2,-2,0,499,803,6,1,0.4501286
2,30,50,42,1,6099,6099,2,2,3,2,-2,-2,0,500,107,5,1,0.466724
2,30,50,42,1,7199,7199,2,2,3,2,-2,-2,0,501,131,5,0,0.4167872
2,30,50,42,1,11399,11399,2,2,1,-2,2,-2,1,502,766,6,1,0.5167818
2,30,50,42,1,3355,3355,1,2,3,-2,2,-2,1,503,66,5,1,0.4832917
2,30,50,42,1,6099,6099,2,2,1,-2,2,-2,1,504,674,5,1,0.4167817
2,30,50,42,1,5699,5699,2,1,2,2,-2,2,0,505,669,6,1,0.4500164
2,30,50,42,1,10899,10899,2,3,1,-2,2,2,1,506,474,6,1,0.6833957
2,30,50,42,1,3799,3799,2,2,1,2,-2,-2,0,507,643,6,1,0.4167034
2,30,50,42,1,6999,6999,2,3,1,2,-2,2,0,508,411,6,1,0.5001251
2,30,50,42,1,12355,12355,1,3,2,2,-2,2,0,509,217,6,1,0.5500166
2,30,50,42,1,11755,11755,1,1,3,-2,2,-2,1,510,488,6,1,0.5001856
2,30,50,42,1,12299,12299,2,2,3,2,-2,-2,0,511,215,6,1,0.9668158
2,30,50,42,1,11799,11799,2,2,3,-2,2,-2,1,512,206,5,1,0.6333475
2,30,50,42,1,11599,11599,2,1,2,2,-2,2,0,513,769,5,1,0.5834394
2,30,50,42,1,6399,6399,2,3,1,2,-2,2,0,514,399,6,1,0.5833701
2,30,50,42,1,10799,10799,2,2,3,-2,2,-2,1,515,186,5,1,0.6012814
2,30,50,42,1,8199,8199,2,2,3,2,-2,-2,0,516,147,6,1,0.7333319
2,30,50,42,1,1099,1099,2,2,3,2,-2,-2,0,517,19,6,1,0.6500101
2,30,50,42,1,3199,3199,2,3,1,-2,2,2,1,518,346,5,1,0.6167429
2,30,50,42,1,3899,3899,2,1,2,-2,2,2,1,519,644,5,1,0.6001077
2,30,50,42,1,15399,15399,2,3,1,2,-2,2,0,520,555,6,1,0.7333632
2,30,50,42,1,3099,3099,2,2,1,2,-2,-2,0,521,627,6,1,0.6176954
2,30,50,42,1,17255,17255,1,3,2,2,-2,2,0,522,281,6,1,0.5166872
2,30,50,42,1,13055,13055,1,1,2,-2,2,2,1,523,800,5,1,0.5334125
2,30,50,42,1,599,599,2,2,3,-2,2,-2,1,524,10,6,1,0.7832913
2,30,50,42,1,9255,9255,1,2,1,2,-2,-2,0,525,727,6,1,0.6334126
2,30,50,42,1,7999,7999,2,3,1,2,-2,2,0,526,427,6,1,1.251289
2,30,50,42,1,6699,6699,2,2,3,2,-2,-2,0,527,119,6,1,0.7167849
2,30,50,42,1,14699,14699,2,1,2,2,-2,2,0,528,833,5,1,0.550088
2,30,50,42,1,14355,14355,1,3,1,-2,2,2,1,529,542,5,1,0.5001191
2,30,50,42,1,4899,4899,2,1,3,2,-2,-2,0,530,377,6,1,0.5333786
2,30,50,42,1,9599,9599,2,1,3,-2,2,-2,1,531,448,6,1,0.4333813
2,30,50,42,1,15799,15799,2,1,2,-2,2,2,1,532,840,5,1,0.6500396
2,30,50,42,1,15399,15399,2,2,1,2,-2,-2,0,533,839,6,1,0.4833529
2,30,50,42,1,11199,11199,2,1,3,-2,2,-2,1,534,480,5,1,0.4834115
2,30,50,42,1,13255,13255,1,3,1,-2,2,2,1,535,522,5,1,0.5000359
2,30,50,42,1,16299,16299,2,3,1,2,-2,2,0,536,563,6,1,0.533367
2,30,50,42,1,455,455,1,2,3,-2,2,-2,1,537,6,5,1,0.483313
2,30,50,42,1,7299,7299,2,3,2,2,-2,2,0,538,133,5,1,0.4667061
2,30,50,42,1,17255,17255,1,1,3,2,-2,-2,0,539,565,6,1,0.4834313
2,30,50,42,1,13255,13255,1,2,3,-2,2,-2,1,540,238,5,1,0.416776
2,30,50,42,1,12799,12799,2,2,3,2,-2,-2,0,541,227,6,1,0.5167827
2,30,50,42,1,799,799,2,3,2,2,-2,2,0,542,13,5,1,0.4500943
2,30,50,42,1,1399,1399,2,3,2,-2,2,2,1,543,24,6,1,0.5500209
2,30,50,42,1,13255,13255,1,2,3,2,-2,-2,0,544,239,5,1,0.4834211
2,30,50,42,1,3199,3199,2,2,3,-2,2,-2,1,545,62,5,1,0.5013001
2,30,50,42,1,2955,2955,1,2,1,-2,2,-2,1,546,622,5,1,0.4666479
2,30,50,42,1,12099,12099,2,3,2,-2,2,2,1,547,208,6,1,0.4669166
2,30,50,42,1,14055,14055,1,2,1,2,-2,-2,0,548,819,5,1,0.6500365
2,30,50,42,1,9399,9399,2,1,3,2,-2,-2,0,549,445,6,1,0.5000304
2,30,50,42,1,15799,15799,2,1,3,2,-2,-2,0,550,557,5,1,0.5833727
2,30,50,42,1,4599,4599,2,1,3,-2,2,-2,1,551,372,6,1,0.7500022
2,30,50,42,1,17355,17355,1,3,1,2,-2,2,0,552,567,5,1,0.5333747
2,30,50,42,1,4599,4599,2,3,2,-2,2,2,1,553,88,6,1,0.7499933
2,30,50,42,1,2655,2655,1,3,1,-2,2,2,1,554,330,6,1,0.8167925
2,30,50,42,1,6899,6899,2,3,1,2,-2,2,0,555,407,5,1,0.4999862
2,30,50,42,1,14355,14355,1,2,1,2,-2,-2,0,556,827,5,1,0.5501019
2,30,50,42,1,10199,10199,2,3,1,2,-2,2,0,557,459,6,1,0.6833593
2,30,50,42,1,7799,7799,2,3,2,-2,2,2,1,558,140,5,1,0.5501453
2,30,50,42,1,13899,13899,2,1,2,-2,2,2,1,559,816,6,1,1.0167756
2,30,50,42,1,7399,7399,2,2,1,-2,2,-2,1,560,702,6,1,0.6334019
2,30,50,42,1,1799,1799,2,1,3,-2,2,-2,1,561,312,6,1,0.6833492
2,30,50,42,1,4099,4099,2,2,3,2,-2,-2,0,562,79,6,1,0.5834429
2,30,50,42,1,2699,2699,2,1,2,2,-2,2,0,563,617,6,1,0.5833626
2,30,50,42,1,11099,11099,2,2,1,-2,2,-2,1,564,762,6,1,0.5682208
2,30,50,42,1,6855,6855,1,1,3,2,-2,-2,0,565,405,6,1,0.4500558
2,30,50,42,1,9499,9499,2,2,1,-2,2,-2,1,566,730,5,1,0.5166892
2,30,50,42,1,8799,8799,2,2,3,2,-2,-2,0,567,155,6,1,0.5501245
2,30,50,42,1,2899,2899,2,3,2,2,-2,2,0,568,53,6,1,0.9500151
2,30,50,42,1,1699,1699,2,2,1,-2,2,-2,1,569,594,5,1,0.5336811
2,30,50,42,1,6599,6599,2,3,2,-2,2,2,1,570,116,5,1,0.5333739
2,30,50,42,1,8099,8099,2,1,3,2,-2,-2,0,571,429,5,1,0.4834275
2,30,50,42,1,10855,10855,1,3,2,2,-2,2,0,572,189,5,1,0.4834144
2,30,50,42,1,10699,10699,2,1,3,-2,2,-2,1,573,468,5,0,0.3500414
2,30,50,42,1,799,799,2,1,2,-2,2,2,1,574,580,5,1,0.5000994
2,30,50,42,1,15099,15099,2,2,3,-2,2,-2,1,575,266,6,1,0.5527639
2,30,50,42,1,2899,2899,2,1,2,-2,2,2,1,576,620,6,1,0.6334097
2,30,50,42,1,7999,7999,2,2,3,-2,2,-2,1,577,142,6,1,0.6667713
2,30,50,42,1,11199,11199,2,1,3,2,-2,-2,0,578,481,5,1,0.6181561
2,30,50,42,1,4599,4599,2,1,2,2,-2,2,0,579,657,6,1,0.716639
2,30,50,42,1,14699,14699,2,1,2,-2,2,2,1,580,832,5,1,0.5667666
2,30,50,42,1,6399,6399,2,2,3,-2,2,-2,1,581,114,6,1,0.7167579
2,30,50,42,1,9899,9899,2,1,2,-2,2,2,1,582,736,6,1,0.5334619
2,30,50,42,1,3599,3599,2,2,1,-2,2,-2,1,583,638,6,1,0.6668775
2,30,50,42,1,12099,12099,2,1,3,2,-2,-2,0,584,493,6,1,0.5012837
2,30,50,42,1,1855,1855,1,3,1,2,-2,2,0,585,315,5,1,0.6000323
2,30,50,42,1,7699,7699,2,3,1,2,-2,2,0,586,423,6,1,0.7000157
2,30,50,42,1,14199,14199,2,3,1,2,-2,2,0,587,539,5,1,0.6000037
2,30,50,42,1,11599,11599,2,1,2,-2,2,2,1,588,768,5,1,0.4500207
2,30,50,42,1,4799,4799,2,3,1,2,-2,2,0,589,375,5,1,0.3667748
2,30,50,42,1,899,899,2,2,1,-2,2,-2,1,590,582,6,1,0.4166674
2,30,50,42,1,9699,9699,2,2,3,-2,2,-2,1,591,166,5,1,0.4001547
2,30,50,42,1,5599,5599,2,3,1,-2,2,2,1,592,382,5,1,0.5167657
2,30,50,42,1,8199,8199,2,2,1,-2,2,-2,1,593,714,6,1,0.400134
2,30,50,42,1,2655,2655,1,3,1,2,-2,2,0,594,331,5,0,0.4835071
2,30,50,42,1,999,999,2,1,2,-2,2,2,1,595,584,5,1,0.4667071
2,30,50,42,1,6699,6699,2,2,1,2,-2,-2,0,596,687,6,1,0.383373
2,30,50,42,1,3399,3399,2,1,2,-2,2,2,1,597,636,5,1,0.5000428
2,30,50,42,1,6355,6355,1,1,3,2,-2,-2,0,598,397,5,1,0.5333491
2,30,50,42,1,9199,9199,2,1,3,2,-2,-2,0,599,441,5,1,0.3666382
2,30,50,42,1,12855,12855,1,1,3,2,-2,-2,0,600,513,6,1,0.5667965
2,30,50,42,1,10599,10599,2,2,1,-2,2,-2,1,601,750,5,1,0.6499858
2,30,50,42,1,9199,9199,2,3,2,2,-2,2,0,602,157,5,1,0.4834588
2,30,50,42,1,11699,11699,2,2,3,-2,2,-2,1,603,202,6,1,0.6333599
2,30,50,42,1,3599,3599,2,3,1,2,-2,2,0,604,355,6,1,0.4333599
2,30,50,42,1,13199,13199,2,1,3,2,-2,-2,0,605,521,6,1,0.6833612
2,30,50,42,1,12199,12199,2,3,2,2,-2,2,0,606,213,5,1,0.4666619
2,30,50,42,1,10199,10199,2,3,1,-2,2,2,1,607,458,6,1,0.5168028
2,30,50,42,1,14499,14499,2,3,1,-2,2,2,1,608,546,6,1,0.501302
2,30,50,42,1,11799,11799,2,2,1,2,-2,-2,0,609,775,5,1,0.5341491
2,30,50,42,1,12599,12599,2,2,1,-2,2,-2,1,610,790,6,1,0.5168199
2,30,50,42,1,4799,4799,2,2,3,2,-2,-2,0,611,91,5,1,0.6167145
2,30,50,42,1,6199,6199,2,1,2,2,-2,2,0,612,677,6,1,0.5334098
2,30,50,42,1,1855,1855,1,2,1,2,-2,-2,0,613,599,5,1,0.3834231
2,30,50,42,1,14355,14355,1,3,1,2,-2,2,0,614,543,5,1,0.4681346
2,30,50,42,1,10455,10455,1,2,3,2,-2,-2,0,615,179,5,1,0.583336
2,30,50,42,1,7599,7599,2,3,2,2,-2,2,0,616,137,6,0,0.383375
2,30,50,42,1,6399,6399,2,2,1,2,-2,-2,0,617,683,6,1,0.5667666
2,30,50,42,1,2799,2799,2,3,1,2,-2,2,0,618,335,5,1,0.4501115
2,30,50,42,1,7299,7299,2,1,3,-2,2,-2,1,619,416,5,1,0.416692
2,30,50,42,1,9899,9899,2,1,3,2,-2,-2,0,620,453,6,1,0.5333537
2,30,50,42,1,3099,3099,2,2,3,2,-2,-2,0,621,59,6,1,0.6501174
2,30,50,42,1,6955,6955,1,1,3,2,-2,-2,0,622,409,5,1,0.450034
2,30,50,42,1,12155,12155,1,3,1,2,-2,2,0,623,495,5,1,0.4000462
2,30,50,42,1,2799,2799,2,2,3,-2,2,-2,1,624,50,5,1,0.6167192
2,30,50,42,1,10355,10355,1,1,3,2,-2,-2,0,625,461,6,1,0.5167722
2,30,50,42,1,8699,8699,2,1,3,-2,2,-2,1,626,436,5,1,0.6334536
2,30,50,42,1,10599,10599,2,2,3,2,-2,-2,0,627,183,5,1,0.401218
2,30,50,42,1,14155,14155,1,3,2,2,-2,2,0,628,253,6,1,0.5166975
2,30,50,42,1,10799,10799,2,3,1,-2,2,2,1,629,470,5,1,0.4832162
2,30,50,42,1,10099,10099,2,2,3,-2,2,-2,1,630,170,5,1,0.4001334
2,30,50,42,1,9255,9255,1,2,1,-2,2,-2,1,631,726,6,1,0.5167311
2,30,50,42,1,3199,3199,2,3,1,2,-2,2,0,632,347,5,1,0.5500465
2,30,50,42,1,7799,7799,2,1,3,2,-2,-2,0,633,425,5,1,0.5833663
2,30,50,42,1,9699,9699,2,3,1,-2,2,2,1,634,450,5,1,0.4001357
2,30,50,42,1,2899,2899,2,1,2,2,-2,2,0,635,621,6,1,0.4167933
2,30,50,42,1,6099,6099,2,2,3,-2,2,-2,1,636,106,5,1,0.4000262
2,30,50,42,1,2999,2999,2,3,2,2,-2,2,0,637,57,5,1,0.5000059
2,30,50,42,1,599,599,2,2,1,-2,2,-2,1,638,578,6,1,0.4502372
2,30,50,42,1,399,399,2,1,3,2,-2,-2,0,639,289,5,0,0.6167897
2,30,50,42,1,4399,4399,2,2,3,-2,2,-2,1,640,86,5,1,0.4167724
2,30,50,42,1,7399,7399,2,2,1,2,-2,-2,0,641,703,5,0,0.4166971
2,30,50,42,1,13299,13299,2,1,2,2,-2,2,0,642,809,5,1,0.4834045
2,30,50,42,1,13155,13155,1,3,1,2,-2,2,0,643,519,6,1,0.5167928
2,30,50,42,1,10699,10699,2,3,2,2,-2,2,0,644,185,6,1,0.5000501
2,30,50,42,1,1199,1199,2,1,2,-2,2,2,1,645,588,5,1,0.433431
2,30,50,42,1,15899,15899,2,3,1,-2,2,2,1,646,558,6,1,0.5334116
2,30,50,42,1,1255,1255,1,3,1,-2,2,2,1,647,306,6,1,0.516756
2,30,50,42,1,10455,10455,1,3,1,-2,2,2,1,648,462,6,0,0.3000329
2,30,50,42,1,8499,8499,2,2,3,-2,2,-2,1,649,150,6,1,0.5333743
2,30,50,42,1,17255,17255,1,1,2,2,-2,2,0,650,849,5,0,0.500027
2,30,50,42,1,14399,14399,2,1,3,-2,2,-2,1,651,544,5,1,0.6000127
2,30,50,42,1,5699,5699,2,1,2,-2,2,2,1,652,668,6,1,0.5666755
2,30,50,42,1,4399,4399,2,2,1,2,-2,-2,0,653,655,5,1,0.4000233
2,30,50,42,1,3899,3899,2,1,3,-2,2,-2,1,654,360,5,1,0.5667828
2,30,50,42,1,12855,12855,1,3,2,2,-2,2,0,655,229,6,1,0.4349463
2,30,50,42,1,6099,6099,2,3,1,2,-2,2,0,656,391,5,1,0.5334114
2,30,50,42,1,10355,10355,1,1,3,-2,2,-2,1,657,460,6,1,0.5500234
2,30,50,42,1,9255,9255,1,3,1,-2,2,2,1,658,442,6,1,0.6166893
2,30,50,42,1,11599,11599,2,1,3,2,-2,-2,0,659,485,5,1,0.533454
2,30,50,42,1,2699,2699,2,1,3,-2,2,-2,1,660,332,6,1,0.6833161
2,30,50,42,1,13899,13899,2,1,3,-2,2,-2,1,661,532,6,1,0.6000244
2,30,50,42,1,13699,13699,2,1,2,-2,2,2,1,662,812,5,1,0.4667923
2,30,50,42,1,13255,13255,1,2,1,2,-2,-2,0,663,807,5,1,0.6678032
2,30,50,42,1,16299,16299,2,2,3,-2,2,-2,1,664,278,6,1,0.5502192
2,30,50,42,1,13699,13699,2,1,2,2,-2,2,0,665,813,5,1,0.6168072
2,30,50,42,1,6299,6299,2,3,1,2,-2,2,0,666,395,5,1,0.4166388
2,30,50,42,1,11399,11399,2,3,1,-2,2,2,1,667,482,5,0,0.3833882
2,30,50,42,1,13155,13155,1,2,1,-2,2,-2,1,668,802,6,1,0.5833421
2,30,50,42,1,12499,12499,2,2,1,2,-2,-2,0,669,787,5,1,0.6178567
2,30,50,42,1,6955,6955,1,1,2,2,-2,2,0,670,693,5,1,0.5500206
2,30,50,42,1,14299,14299,2,1,3,-2,2,-2,1,671,540,6,1,0.6500897
2,30,50,42,1,13155,13155,1,2,3,2,-2,-2,0,672,235,6,1,0.6334833
2,30,50,42,1,10155,10155,1,1,2,2,-2,2,0,673,741,5,1,0.6167041
2,30,50,42,1,2255,2255,1,2,1,2,-2,-2,0,674,607,5,1,0.6000602
2,30,50,42,1,2955,2955,1,2,3,-2,2,-2,1,675,54,5,1,0.4833473
2,30,50,42,1,11799,11799,2,3,1,-2,2,2,1,676,490,5,1,0.5499971
2,30,50,42,1,12799,12799,2,3,1,2,-2,2,0,677,511,6,1,0.6001344
2,30,50,42,1,4299,4299,2,3,2,-2,2,2,1,678,84,5,0,1.1333871
2,30,50,42,1,4299,4299,2,1,2,-2,2,2,1,679,652,6,1,0.5001389
2,30,50,42,1,2655,2655,1,2,3,-2,2,-2,1,680,46,5,0,0.4334097
2,30,50,42,1,13199,13199,2,1,3,-2,2,-2,1,681,520,6,1,0.4834134
2,30,50,42,1,2155,2155,1,3,2,-2,2,2,1,682,36,6,1,0.5834252
2,30,50,42,1,5699,5699,2,1,3,2,-2,-2,0,683,385,6,1,0.4500704
2,30,50,42,1,2399,2399,2,2,1,2,-2,-2,0,684,611,6,1,0.4667672
2,30,50,42,1,11099,11099,2,2,3,-2,2,-2,1,685,194,6,1,0.4333615
2,30,50,42,1,999,999,2,1,3,-2,2,-2,1,686,300,5,1,0.6666654
2,30,50,42,1,15399,15399,2,2,1,-2,2,-2,1,687,838,6,1,0.6000338
2,30,50,42,1,14355,14355,1,2,3,-2,2,-2,1,688,258,5,1,0.4834073
2,30,50,42,1,5599,5599,2,2,1,-2,2,-2,1,689,666,5,1,0.5333474
2,30,50,42,1,11755,11755,1,1,2,2,-2,2,0,690,773,6,1,0.6833645
2,30,50,42,1,4199,4199,2,2,1,-2,2,-2,1,691,650,5,1,0.5167444
2,30,50,42,1,455,455,1,3,1,-2,2,2,1,692,290,5,1,0.5333636
2,30,50,42,1,7699,7699,2,2,1,-2,2,-2,1,693,706,6,1,0.5511724
2,30,50,42,1,1099,1099,2,3,1,-2,2,2,1,694,302,6,1,0.4339559
2,30,50,42,1,1399,1399,2,1,3,-2,2,-2,1,695,308,6,1,0.6667381
2,30,50,42,1,5699,5699,2,1,3,-2,2,-2,1,696,384,6,1,0.5166306
2,30,50,42,1,11799,11799,2,2,3,2,-2,-2,0,697,207,5,1,1.1833633
2,30,50,42,1,12355,12355,1,1,2,-2,2,2,1,698,784,6,1,0.7167459
2,30,50,42,1,6399,6399,2,2,1,-2,2,-2,1,699,682,6,1,0.7167822
2,30,50,42,1,4199,4199,2,3,1,2,-2,2,0,700,367,5,1,0.5500078
2,30,50,42,1,13699,13699,2,1,3,2,-2,-2,0,701,529,5,1,0.5667238
2,30,50,42,1,10155,10155,1,3,2,-2,2,2,1,702,172,5,1,0.5000575
2,30,50,42,1,10999,10999,2,1,3,2,-2,-2,0,703,477,5,1,0.3511585
2,30,50,42,1,2999,2999,2,1,3,2,-2,-2,0,704,341,5,1,0.4167881
2,30,50,42,1,10599,10599,2,2,3,-2,2,-2,1,705,182,5,1,0.516819
2,30,50,42,1,13499,13499,2,3,1,2,-2,2,0,706,527,6,1,0.7000506
2,30,50,42,1,10899,10899,2,2,3,2,-2,-2,0,707,191,6,1,0.7000234
2,30,50,42,1,14199,14199,2,2,1,2,-2,-2,0,708,823,5,1,0.7001263
2,30,50,42,1,14055,14055,1,2,1,-2,2,-2,1,709,818,5,1,0.6010183
2,30,50,42,1,3099,3099,2,3,1,-2,2,2,1,710,342,6,1,0.4835748
2,30,50,42,1,10855,10855,1,1,3,-2,2,-2,1,711,472,6,0,0.6500389
2,30,50,42,1,13055,13055,1,1,3,2,-2,-2,0,712,517,5,1,0.6667017
2,30,50,42,1,12555,12555,1,2,3,-2,2,2,1,713,220,5,1,0.4834507
2,30,50,42,1,12699,12699,2,1,3,2,-2,-2,0,714,509,5,1,0.4667177
2,30,50,42,1,9199,9199,2,1,2,-2,2,2,1,715,724,5,1,0.5501307
2,30,50,42,1,1855,1855,1,2,3,2,-2,-2,0,716,31,5,1,0.4506665
2,30,50,42,1,6955,6955,1,3,2,-2,2,2,1,717,124,5,1,0.4167945
2,30,50,42,1,2999,2999,2,1,2,2,-2,2,0,718,625,5,1,0.4499979
2,30,50,42,1,4599,4599,2,1,2,-2,2,2,1,719,656,6,1,1.6167437
2,30,50,42,1,12855,12855,1,1,2,2,-2,2,0,720,797,6,1,0.9167795
2,30,50,42,1,14155,14155,1,1,3,2,-2,-2,0,721,537,6,1,0.5500392
2,30,50,42,1,999,999,2,1,3,2,-2,-2,0,722,301,5,1,0.5667994
2,30,50,42,1,4799,4799,2,3,1,-2,2,2,1,723,374,5,1,0.5667306
2,30,50,42,1,4199,4199,2,3,1,-2,2,2,1,724,366,5,1,0.5500117
2,30,50,42,1,13855,13855,1,3,1,-2,2,2,1,725,530,6,1,0.5834866
2,30,50,42,1,499,499,2,3,2,2,-2,2,0,726,9,5,1,0.6501334
2,30,50,42,1,9399,9399,2,3,2,-2,2,2,1,727,160,6,1,0.6000174
2,30,50,42,1,6199,6199,2,1,3,-2,2,-2,1,728,392,6,1,0.750147
2,30,50,42,1,8099,8099,2,1,2,2,-2,2,0,729,713,5,1,0.5500914
2,30,50,42,1,11099,11099,2,2,1,2,-2,-2,0,730,763,6,1,0.5167873
2,30,50,42,1,6299,6299,2,2,3,2,-2,-2,0,731,111,5,1,0.6334336
2,30,50,42,1,199,199,2,1,3,2,-2,-2,0,732,285,6,1,0.5334169
